;Freq(Hz)	Relative Amplitude (dB): Left
18407.2266	-90.286774
18410.1562	-90.363205
18413.0859	-90.384338
18416.0156	-90.385033
18418.9453	-90.348167
18421.8750	-90.317902
18424.8047	-90.364975
18427.7344	-90.437912
18430.6641	-90.456825
18433.5938	-90.432922
18436.5234	-90.422699
18439.4531	-90.428833
18442.3828	-90.420876
18445.3125	-90.445213
18448.2422	-90.506622
18451.1719	-90.506447
18454.1016	-90.497429
18457.0312	-90.504547
18459.9609	-90.474022
18462.8906	-90.469948
18465.8203	-90.474976
18468.7500	-90.475945
18471.6797	-90.503487
18474.6094	-90.506203
18477.5391	-90.485809
18480.4688	-90.463142
18483.3984	-90.488312
18486.3281	-90.544975
18489.2578	-90.529762
18492.1875	-90.490921
18495.1172	-90.439888
18498.0469	-90.400345
18500.9766	-90.514008
18503.9062	-90.636307
18506.8359	-90.644798
18509.7656	-90.640709
18512.6953	-90.641663
18515.6250	-90.644989
18518.5547	-90.663849
18521.4844	-90.694359
18524.4141	-90.698189
18527.3438	-90.666283
18530.2734	-90.675720
18533.2031	-90.704536
18536.1328	-90.682091
18539.0625	-90.677544
18541.9922	-90.689796
18544.9219	-90.744148
18547.8516	-90.834396
18550.7812	-90.782104
18553.7109	-90.694458
18556.6406	-90.737183
18559.5703	-90.788605
18562.5000	-90.798019
18565.4297	-90.818413
18568.3594	-90.866356
18571.2891	-90.930107
18574.2188	-90.919144
18577.1484	-90.844536
18580.0781	-90.822556
18583.0078	-90.903984
18585.9375	-90.980247
18588.8672	-90.955826
18591.7969	-90.934761
18594.7266	-90.949448
18597.6562	-91.002670
18600.5859	-91.020348
18603.5156	-91.000740
18606.4453	-90.988564
18609.3750	-90.963043
18612.3047	-90.946869
18615.2344	-90.928421
18618.1641	-90.925278
18621.0938	-91.007805
18624.0234	-91.057671
18626.9531	-91.036835
18629.8828	-91.082703
18632.8125	-91.096313
18635.7422	-91.075348
18638.6719	-91.113571
18641.6016	-91.175934
18644.5312	-91.242516
18647.4609	-91.254936
18650.3906	-91.182091
18653.3203	-91.143555
18656.2500	-91.181770
18659.1797	-91.209915
18662.1094	-91.236145
18665.0391	-91.219719
18667.9688	-91.179482
18670.8984	-91.189186
18673.8281	-91.200142
18676.7578	-91.243385
18679.6875	-91.312050
18682.6172	-91.324631
18685.5469	-91.303986
18688.4766	-91.349327
18691.4062	-91.394646
18694.3359	-91.309288
18697.2656	-91.209229
18700.1953	-91.244164
18703.1250	-91.362778
18706.0547	-91.421555
18708.9844	-91.418076
18711.9141	-91.413841
18714.8438	-91.391327
18717.7734	-91.384972
18720.7031	-91.495438
18723.6328	-91.552177
18726.5625	-91.486084
18729.4922	-91.540436
18732.4219	-91.594307
18735.3516	-91.540131
18738.2812	-91.560165
18741.2109	-91.615990
18744.1406	-91.699036
18747.0703	-91.810387
18750.0000	-91.825829
18752.9297	-91.805267
18755.8594	-91.800087
18758.7891	-91.765656
18761.7188	-91.728508
18764.6484	-91.764336
18767.5781	-91.827827
18770.5078	-91.813599
18773.4375	-91.777779
18776.3672	-91.789185
18779.2969	-91.880295
18782.2266	-91.961266
18785.1562	-91.963509
18788.0859	-91.909462
18791.0156	-91.893425
18793.9453	-91.979553
18796.8750	-92.014450
18799.8047	-92.017258
18802.7344	-92.056252
18805.6641	-92.065193
18808.5938	-92.086639
18811.5234	-92.124855
18814.4531	-92.131828
18817.3828	-92.148949
18820.3125	-92.155373
18823.2422	-92.153305
18826.1719	-92.176453
18829.1016	-92.176552
18832.0312	-92.188026
18834.9609	-92.232925
18837.8906	-92.291290
18840.8203	-92.321915
18843.7500	-92.284843
18846.6797	-92.248497
18849.6094	-92.297150
18852.5391	-92.380234
18855.4688	-92.420509
18858.3984	-92.383064
18861.3281	-92.379097
18864.2578	-92.521347
18867.1875	-92.586823
18870.1172	-92.566780
18873.0469	-92.597572
18875.9766	-92.587654
18878.9062	-92.560432
18881.8359	-92.605415
18884.7656	-92.682549
18887.6953	-92.728271
18890.6250	-92.771179
18893.5547	-92.745972
18896.4844	-92.621254
18899.4141	-92.643341
18902.3438	-92.838623
18905.2734	-92.928444
18908.2031	-92.928123
18911.1328	-92.911049
18914.0625	-92.924576
18916.9922	-93.092430
18919.9219	-93.189735
18922.8516	-93.157387
18925.7812	-93.212349
18928.7109	-93.261108
18931.6406	-93.288605
18934.5703	-93.361572
18937.5000	-93.464577
18940.4297	-93.536034
18943.3594	-93.549446
18946.2891	-93.586472
18949.2188	-93.645470
18952.1484	-93.740829
18955.0781	-93.793648
18958.0078	-93.773247
18960.9375	-93.789040
18963.8672	-93.875084
18966.7969	-94.014000
18969.7266	-94.117813
18972.6562	-94.082718
18975.5859	-94.067444
18978.5156	-94.142532
18981.4453	-94.174728
18984.3750	-94.274231
18987.3047	-94.392029
18990.2344	-94.491806
18993.1641	-94.566032
18996.0938	-94.557480
18999.0234	-94.655220
19001.9531	-94.768967
19004.8828	-94.795509
19007.8125	-94.910889
19010.7422	-95.085464
19013.6719	-95.190353
19016.6016	-95.258774
19019.5312	-95.315491
19022.4609	-95.412148
19025.3906	-95.512398
19028.3203	-95.569283
19031.2500	-95.671227
19034.1797	-95.870453
19037.1094	-96.110008
19040.0391	-96.204422
19042.9688	-96.282402
19045.8984	-96.559814
19048.8281	-96.723534
19051.7578	-96.761391
19054.6875	-96.955826
19057.6172	-97.144417
19060.5469	-97.285034
19063.4766	-97.310341
19066.4062	-97.373581
19069.3359	-97.686638
19072.2656	-98.113815
19075.1953	-98.441399
19078.1250	-98.568535
19081.0547	-98.655090
19083.9844	-98.869217
19086.9141	-99.218918
19089.8438	-99.600670
19092.7734	-99.973274
19095.7031	-100.437576
19098.6328	-100.873421
19101.5625	-101.157364
19104.4922	-101.748558
19107.4219	-102.638687
19110.3516	-103.226913
19113.2812	-103.721687
19116.2109	-104.572472
19119.1406	-105.514336
19122.0703	-106.398827
19125.0000	-107.670372
19127.9297	-109.826813
19130.8594	-112.924805
19133.7891	-116.594704
19136.7188	-121.943481
19139.6484	-124.491493
19142.5781	-119.248657
19145.5078	-113.131714
19148.4375	-109.555458
19151.3672	-107.510056
19154.2969	-105.750549
19157.2266	-103.766296
19160.1562	-101.912132
19163.0859	-100.389999
19166.0156	-98.988556
19168.9453	-97.636353
19171.8750	-96.413895
19174.8047	-95.356766
19177.7344	-94.377487
19180.6641	-93.363907
19183.5938	-92.341118
19186.5234	-91.330200
19189.4531	-90.272629
19192.3828	-89.205849
19195.3125	-88.333679
19198.2422	-87.411469
19201.1719	-86.236938
19204.1016	-85.047592
19207.0312	-83.877853
19209.9609	-82.688843
19212.8906	-81.480057
19215.8203	-80.190796
19218.7500	-78.817917
19221.6797	-77.333626
19224.6094	-75.696411
19227.5391	-73.920059
19230.4688	-72.074013
19233.3984	-70.281067
19236.3281	-68.959732
19239.2578	-68.472351
19242.1875	-68.898781
19245.1172	-69.987373
19248.0469	-71.329521
19250.9766	-72.619850
19253.9062	-73.797424
19256.8359	-74.841637
19259.7656	-75.763870
19262.6953	-76.581642
19265.6250	-77.291267
19268.5547	-77.916832
19271.4844	-78.493301
19274.4141	-79.029213
19277.3438	-79.528084
19280.2734	-79.961731
19283.2031	-80.351006
19286.1328	-80.712738
19289.0625	-81.040878
19291.9922	-81.370811
19294.9219	-81.687531
19297.8516	-81.971054
19300.7812	-82.218704
19303.7109	-82.455040
19306.6406	-82.686501
19309.5703	-82.896011
19312.5000	-83.101982
19315.4297	-83.310417
19318.3594	-83.514839
19321.2891	-83.687820
19324.2188	-83.824440
19327.1484	-83.960175
19330.0781	-84.097549
19333.0078	-84.217407
19335.9375	-84.356331
19338.8672	-84.504265
19341.7969	-84.624748
19344.7266	-84.757545
19347.6562	-84.883949
19350.5859	-84.985649
19353.5156	-85.104218
19356.4453	-85.235855
19359.3750	-85.332451
19362.3047	-85.390541
19365.2344	-85.469925
19368.1641	-85.586716
19371.0938	-85.699722
19374.0234	-85.786201
19376.9531	-85.847054
19379.8828	-85.923439
19382.8125	-86.042862
19385.7422	-86.119347
19388.6719	-86.146027
19391.6016	-86.212715
19394.5312	-86.294411
19397.4609	-86.380440
19400.3906	-86.439781
19403.3203	-86.467453
19406.2500	-86.535622
19409.1797	-86.607040
19412.1094	-86.667831
19415.0391	-86.725990
19417.9688	-86.753258
19420.8984	-86.805695
19423.8281	-86.907539
19426.7578	-87.006371
19429.6875	-87.059898
19432.6172	-87.093559
19435.5469	-87.133598
19438.4766	-87.155190
19441.4062	-87.199226
19444.3359	-87.252373
19447.2656	-87.290176
19450.1953	-87.354881
19453.1250	-87.407051
19456.0547	-87.442177
19458.9844	-87.483391
19461.9141	-87.526299
19464.8438	-87.557335
19467.7734	-87.575211
19470.7031	-87.591202
19473.6328	-87.596283
19476.5625	-87.638634
19479.4922	-87.711838
19482.4219	-87.758827
19485.3516	-87.778763
19488.2812	-87.819168
19491.2109	-87.852768
19494.1406	-87.886887
19497.0703	-87.976624
19500.0000	-88.016464
19502.9297	-87.979988
19505.8594	-87.963356
19508.7891	-87.951927
19511.7188	-87.968178
19514.6484	-88.055344
19517.5781	-88.114723
19520.5078	-88.127655
19523.4375	-88.125023
19526.3672	-88.115181
19529.2969	-88.169807
19532.2266	-88.264938
19535.1562	-88.298935
19538.0859	-88.288757
19541.0156	-88.282829
19543.9453	-88.318649
19546.8750	-88.403091
19549.8047	-88.412422
19552.7344	-88.373817
19555.6641	-88.395599
19558.5938	-88.448013
19561.5234	-88.464500
19564.4531	-88.480316
19567.3828	-88.536133
19570.3125	-88.549721
19573.2422	-88.544456
19576.1719	-88.585327
19579.1016	-88.611794
19582.0312	-88.595924
19584.9609	-88.603577
19587.8906	-88.648750
19590.8203	-88.685829
19593.7500	-88.740906
19596.6797	-88.817169
19599.6094	-88.820755
19602.5391	-88.822922
19605.4688	-88.841499
19608.3984	-88.801201
19611.3281	-88.765266
19614.2578	-88.787354
19617.1875	-88.847946
19620.1172	-88.886292
19623.0469	-88.872482
19625.9766	-88.910103
19628.9062	-89.007080
19631.8359	-89.031036
19634.7656	-89.006088
19637.6953	-88.993279
19640.6250	-88.974319
19643.5547	-88.963730
19646.4844	-88.979530
19649.4141	-89.012856
19652.3438	-89.063416
19655.2734	-89.071663
19658.2031	-89.070366
19661.1328	-89.111420
19664.0625	-89.138557
19666.9922	-89.179169
19669.9219	-89.184807
19672.8516	-89.158432
19675.7812	-89.174034
19678.7109	-89.207176
19681.6406	-89.236160
19684.5703	-89.280655
19687.5000	-89.279755
19690.4297	-89.226089
19693.3594	-89.267555
19696.2891	-89.326897
19699.2188	-89.285156
19702.1484	-89.298912
19705.0781	-89.388977
19708.0078	-89.391457
19710.9375	-89.392731
19713.8672	-89.428886
19716.7969	-89.434013
19719.7266	-89.427109
19722.6562	-89.406624
19725.5859	-89.400764
19728.5156	-89.413528
19731.4453	-89.441399
19734.3750	-89.476662
19737.3047	-89.476913
19740.2344	-89.489838
19743.1641	-89.484100
19746.0938	-89.428833
19749.0234	-89.480225
19751.9531	-89.615944
19754.8828	-89.621010
19757.8125	-89.557442
19760.7422	-89.531830
19763.6719	-89.526695
19766.6016	-89.568153
19769.5312	-89.607697
19772.4609	-89.628197
19775.3906	-89.654472
19778.3203	-89.663528
19781.2500	-89.671944
19784.1797	-89.700981
19787.1094	-89.711960
19790.0391	-89.706070
19792.9688	-89.687714
19795.8984	-89.653656
19798.8281	-89.681511
19801.7578	-89.736610
19804.6875	-89.741722
19807.6172	-89.738853
19810.5469	-89.766380
19813.4766	-89.780342
19816.4062	-89.764030
19819.3359	-89.745628
19822.2656	-89.758835
19825.1953	-89.826431
19828.1250	-89.839523
19831.0547	-89.791183
19833.9844	-89.819923
19836.9141	-89.855072
19839.8438	-89.847046
19842.7734	-89.846489
19845.7031	-89.856171
19848.6328	-89.923172
19851.5625	-89.948776
19854.4922	-89.893272
19857.4219	-89.910088
19860.3516	-89.965179
19863.2812	-89.975792
19866.2109	-89.992668
19869.1406	-90.028954
19872.0703	-90.041489
19875.0000	-90.086174
19877.9297	-90.123428
19880.8594	-90.064842
19883.7891	-90.009773
19886.7188	-90.012848
19889.6484	-90.065559
19892.5781	-90.132240
19895.5078	-90.089851
19898.4375	-90.029846
19901.3672	-90.058128
19904.2969	-90.092804
19907.2266	-90.122971
19910.1562	-90.115608
19913.0859	-90.080948
19916.0156	-90.125641
19918.9453	-90.179390
19921.8750	-90.158577
19924.8047	-90.158699
19927.7344	-90.168083
19930.6641	-90.172264
19933.5938	-90.212624
19936.5234	-90.204765
19939.4531	-90.149040
19942.3828	-90.141693
19945.3125	-90.222534
19948.2422	-90.282532
19951.1719	-90.228218
19954.1016	-90.182281
19957.0312	-90.187134
19959.9609	-90.208916
19962.8906	-90.254555
19965.8203	-90.332825
19968.7500	-90.365486
19971.6797	-90.275650
19974.6094	-90.203995
19977.5391	-90.224976
19980.4688	-90.281525
19983.3984	-90.351486
19986.3281	-90.349098
19989.2578	-90.327354
19992.1875	-90.368614
19995.1172	-90.379753
19998.0469	-90.341904
20000.9766	-90.368866
20003.9062	-90.463722
20006.8359	-90.473305
20009.7656	-90.409943
20012.6953	-90.426178
20015.6250	-90.493828
20018.5547	-90.444771
20021.4844	-90.371300
20024.4141	-90.390198
20027.3438	-90.402000
20030.2734	-90.360222
20033.2031	-90.360962
20036.1328	-90.426537
20039.0625	-90.480270
20041.9922	-90.494247
20044.9219	-90.499878
20047.8516	-90.480171
20050.7812	-90.494713
20053.7109	-90.574265
20056.6406	-90.576752
20059.5703	-90.507195
20062.5000	-90.483543
20065.4297	-90.523613
20068.3594	-90.588272
20071.2891	-90.631920
20074.2188	-90.619766
20077.1484	-90.606979
20080.0781	-90.642807
20083.0078	-90.693825
20085.9375	-90.685081
20088.8672	-90.625191
20091.7969	-90.594536
20094.7266	-90.653473
20097.6562	-90.758118
20100.5859	-90.743240
20103.5156	-90.673050
20106.4453	-90.670776
20109.3750	-90.695633
20112.3047	-90.705826
20115.2344	-90.693657
20118.1641	-90.684387
20121.0938	-90.729652
20124.0234	-90.813469
20126.9531	-90.822670
20129.8828	-90.816666
20132.8125	-90.841957
20135.7422	-90.832260
20138.6719	-90.796135
20141.6016	-90.789932
20144.5312	-90.816864
20147.4609	-90.797569
20150.3906	-90.805977
20153.3203	-90.892868
20156.2500	-90.868011
20159.1797	-90.777496
20162.1094	-90.781578
20165.0391	-90.816666
20167.9688	-90.796700
20170.8984	-90.823708
20173.8281	-90.893829
20176.7578	-90.881943
20179.6875	-90.865273
20182.6172	-90.926704
20185.5469	-90.916420
20188.4766	-90.874443
20191.4062	-90.928940
20194.3359	-90.911575
20197.2656	-90.823349
20200.1953	-90.792221
20203.1250	-90.823456
20206.0547	-90.914703
20208.9844	-90.987106
20211.9141	-90.970688
20214.8438	-90.905975
20217.7734	-90.915451
20220.7031	-90.992149
20223.6328	-91.027245
20226.5625	-90.997078
20229.4922	-90.947685
20232.4219	-90.930046
20235.3516	-90.921608
20238.2812	-90.920525
20241.2109	-90.952255
20244.1406	-90.944145
20247.0703	-90.876091
20250.0000	-90.898293
20252.9297	-90.981125
20255.8594	-91.027092
20258.7891	-91.030037
20261.7188	-91.002472
20264.6484	-91.015465
20267.5781	-91.049088
20270.5078	-91.068741
20273.4375	-91.109253
20276.3672	-91.121979
20279.2969	-91.080452
20282.2266	-91.073685
20285.1562	-91.082611
20288.0859	-91.091919
20291.0156	-91.123886
20293.9453	-91.098030
20296.8750	-91.073166
20299.8047	-91.096802
20302.7344	-91.074944
20305.6641	-91.045029
20308.5938	-91.089149
20311.5234	-91.137344
20314.4531	-91.151695
20317.3828	-91.156876
20320.3125	-91.154175
20323.2422	-91.144485
20326.1719	-91.138657
20329.1016	-91.199013
20332.0312	-91.280312
20334.9609	-91.237534
20337.8906	-91.167000
20340.8203	-91.185944
20343.7500	-91.231873
20346.6797	-91.224380
20349.6094	-91.201401
20352.5391	-91.220467
20355.4688	-91.223373
20358.3984	-91.210197
20361.3281	-91.227074
20364.2578	-91.263817
20367.1875	-91.289398
20370.1172	-91.323059
20373.0469	-91.336334
20375.9766	-91.305893
20378.9062	-91.284264
20381.8359	-91.293304
20384.7656	-91.302338
20387.6953	-91.280685
20390.6250	-91.284645
20393.5547	-91.343559
20396.4844	-91.464043
20399.4141	-91.475258
20402.3438	-91.386452
20405.2734	-91.404411
20408.2031	-91.421494
20411.1328	-91.379494
20414.0625	-91.396965
20416.9922	-91.420517
20419.9219	-91.434402
20422.8516	-91.461693
20425.7812	-91.434364
20428.7109	-91.390686
20431.6406	-91.424072
20434.5703	-91.452591
20437.5000	-91.396591
20440.4297	-91.369102
20443.3594	-91.397766
20446.2891	-91.382095
20449.2188	-91.376709
20452.1484	-91.433060
20455.0781	-91.444717
20458.0078	-91.444069
20460.9375	-91.510475
20463.8672	-91.556694
20466.7969	-91.517715
20469.7266	-91.469658
20472.6562	-91.410217
20475.5859	-91.369141
20478.5156	-91.457321
20481.4453	-91.531746
20484.3750	-91.521812
20487.3047	-91.531898
20490.2344	-91.519669
20493.1641	-91.491661
20496.0938	-91.454811
20499.0234	-91.425072
20501.9531	-91.439415
20504.8828	-91.476334
20507.8125	-91.560081
20510.7422	-91.648720
20513.6719	-91.659294
20516.6016	-91.597870
20519.5312	-91.561264
20522.4609	-91.560944
20525.3906	-91.548714
20528.3203	-91.515427
20531.2500	-91.477371
20534.1797	-91.508202
20537.1094	-91.597824
20540.0391	-91.612389
20542.9688	-91.594131
20545.8984	-91.618111
20548.8281	-91.673241
20551.7578	-91.687073
20554.6875	-91.633675
20557.6172	-91.655128
20560.5469	-91.690361
20563.4766	-91.686775
20566.4062	-91.704918
20569.3359	-91.757782
20572.2656	-91.770378
20575.1953	-91.744453
20578.1250	-91.731125
20581.0547	-91.723091
20583.9844	-91.670074
20586.9141	-91.639427
20589.8438	-91.702095
20592.7734	-91.776230
20595.7031	-91.791031
20598.6328	-91.814758
20601.5625	-91.825394
20604.4922	-91.823158
20607.4219	-91.793594
20610.3516	-91.783035
20613.2812	-91.786369
20616.2109	-91.753433
20619.1406	-91.777802
20622.0703	-91.790657
20625.0000	-91.761917
20627.9297	-91.824516
20630.8594	-91.881363
20633.7891	-91.837906
20636.7188	-91.782211
20639.6484	-91.765633
20642.5781	-91.825256
20645.5078	-91.870392
20648.4375	-91.860313
20651.3672	-91.826347
20654.2969	-91.795601
20657.2266	-91.827934
20660.1562	-91.886780
20663.0859	-91.889397
20666.0156	-91.807808
20668.9453	-91.773788
20671.8750	-91.828255
20674.8047	-91.844109
20677.7344	-91.841049
20680.6641	-91.906647
20683.5938	-91.952141
20686.5234	-91.941818
20689.4531	-91.930405
20692.3828	-91.914032
20695.3125	-91.944313
20698.2422	-91.930283
20701.1719	-91.869980
20704.1016	-91.863121
20707.0312	-91.834518
20709.9609	-91.842049
20712.8906	-91.882019
20715.8203	-91.864906
20718.7500	-91.895142
20721.6797	-91.938889
20724.6094	-91.915497
20727.5391	-91.933441
20730.4688	-91.990608
20733.3984	-92.012375
20736.3281	-92.027672
20739.2578	-92.057175
20742.1875	-92.057014
20745.1172	-92.012077
20748.0469	-92.031555
20750.9766	-92.101509
20753.9062	-92.102882
20756.8359	-92.060776
20759.7656	-92.007858
20762.6953	-92.008560
20765.6250	-92.083290
20768.5547	-92.112541
20771.4844	-92.072174
20774.4141	-92.064484
20777.3438	-92.089363
20780.2734	-92.070107
20783.2031	-92.072029
20786.1328	-92.111679
20789.0625	-92.109512
20791.9922	-92.171867
20794.9219	-92.212021
20797.8516	-92.119629
20800.7812	-92.120361
20803.7109	-92.195755
20806.6406	-92.200409
20809.5703	-92.187134
20812.5000	-92.171654
20815.4297	-92.106049
20818.3594	-92.054207
20821.2891	-92.123451
20824.2188	-92.288521
20827.1484	-92.340721
20830.0781	-92.260605
20833.0078	-92.272476
20835.9375	-92.285278
20838.8672	-92.251251
20841.7969	-92.267349
20844.7266	-92.281059
20847.6562	-92.242592
20850.5859	-92.240105
20853.5156	-92.302925
20856.4453	-92.315010
20859.3750	-92.291023
20862.3047	-92.311066
20865.2344	-92.341919
20868.1641	-92.320892
20871.0938	-92.306305
20874.0234	-92.310333
20876.9531	-92.309082
20879.8828	-92.334030
20882.8125	-92.340309
20885.7422	-92.276978
20888.6719	-92.236717
20891.6016	-92.278442
20894.5312	-92.261330
20897.4609	-92.169914
20900.3906	-92.210884
20903.3203	-92.346672
20906.2500	-92.442284
20909.1797	-92.451454
20912.1094	-92.350861
20915.0391	-92.272301
20917.9688	-92.297638
20920.8984	-92.368675
20923.8281	-92.414963
20926.7578	-92.451981
20929.6875	-92.478699
20932.6172	-92.498093
20935.5469	-92.506638
20938.4766	-92.512383
20941.4062	-92.567261
20944.3359	-92.574234
20947.2656	-92.500946
20950.1953	-92.443047
20953.1250	-92.460548
20956.0547	-92.496284
20958.9844	-92.441406
20961.9141	-92.374100
20964.8438	-92.401268
20967.7734	-92.471840
20970.7031	-92.534599
20973.6328	-92.531204
20976.5625	-92.426735
20979.4922	-92.348106
20982.4219	-92.415779
20985.3516	-92.502739
20988.2812	-92.502975
20991.2109	-92.459564
20994.1406	-92.490814
20997.0703	-92.604652
21000.0000	-92.584549
21002.9297	-92.526878
21005.8594	-92.574417
21008.7891	-92.640846
21011.7188	-92.621178
21014.6484	-92.542686
21017.5781	-92.600113
21020.5078	-92.686401
21023.4375	-92.616173
21026.3672	-92.554344
21029.2969	-92.567245
21032.2266	-92.588432
21035.1562	-92.671272
21038.0859	-92.731750
21041.0156	-92.688362
21043.9453	-92.655006
21046.8750	-92.717781
21049.8047	-92.784576
21052.7344	-92.737366
21055.6641	-92.654732
21058.5938	-92.673050
21061.5234	-92.725105
21064.4531	-92.733421
21067.3828	-92.756134
21070.3125	-92.831116
21073.2422	-92.849464
21076.1719	-92.814362
21079.1016	-92.822388
21082.0312	-92.841324
21084.9609	-92.812935
21087.8906	-92.764244
21090.8203	-92.760902
21093.7500	-92.737617
21096.6797	-92.685524
21099.6094	-92.752014
21102.5391	-92.852814
21105.4688	-92.843475
21108.3984	-92.848091
21111.3281	-92.897110
21114.2578	-92.843735
21117.1875	-92.764412
21120.1172	-92.800468
21123.0469	-92.790970
21125.9766	-92.678787
21128.9062	-92.702110
21131.8359	-92.809166
21134.7656	-92.784096
21137.6953	-92.754646
21140.6250	-92.837219
21143.5547	-92.895164
21146.4844	-92.889656
21149.4141	-92.899986
21152.3438	-92.904259
21155.2734	-92.849304
21158.2031	-92.830849
21161.1328	-92.860718
21164.0625	-92.860710
21166.9922	-92.872749
21169.9219	-92.907043
21172.8516	-92.880348
21175.7812	-92.844460
21178.7109	-92.895798
21181.6406	-92.917732
21184.5703	-92.910477
21187.5000	-92.963860
21190.4297	-92.960304
21193.3594	-92.908638
21196.2891	-92.882957
21199.2188	-92.866821
21202.1484	-92.925766
21205.0781	-93.043411
21208.0078	-93.031883
21210.9375	-92.903534
21213.8672	-92.936981
21216.7969	-93.035431
21219.7266	-93.050613
21222.6562	-93.114983
21225.5859	-93.130936
21228.5156	-93.094780
21231.4453	-93.058022
21234.3750	-93.069839
21237.3047	-93.123886
21240.2344	-93.020554
21243.1641	-92.947044
21246.0938	-92.908440
21249.0234	-92.888229
21251.9531	-93.022446
21254.8828	-93.158447
21257.8125	-93.108391
21260.7422	-93.029594
21263.6719	-93.049721
21266.6016	-93.082764
21269.5312	-93.168335
21272.4609	-93.253502
21275.3906	-93.199722
21278.3203	-93.183266
21281.2500	-93.214294
21284.1797	-93.159561
21287.1094	-93.098320
21290.0391	-93.134613
21292.9688	-93.182800
21295.8984	-93.197533
21298.8281	-93.201698
21301.7578	-93.184380
21304.6875	-93.201103
21307.6172	-93.209045
21310.5469	-93.224403
21313.4766	-93.271759
21316.4062	-93.234299
21319.3359	-93.188103
21322.2656	-93.164452
21325.1953	-93.137482
21328.1250	-93.142708
21331.0547	-93.162361
21333.9844	-93.162300
21336.9141	-93.133713
21339.8438	-93.151627
21342.7734	-93.198860
21345.7031	-93.177101
21348.6328	-93.145195
21351.5625	-93.151016
21354.4922	-93.170982
21357.4219	-93.217705
21360.3516	-93.301285
21363.2812	-93.380035
21366.2109	-93.397377
21369.1406	-93.356277
21372.0703	-93.273773
21375.0000	-93.267654
21377.9297	-93.276794
21380.8594	-93.253410
21383.7891	-93.314072
21386.7188	-93.418854
21389.6484	-93.524040
21392.5781	-93.558975
21395.5078	-93.546524
21398.4375	-93.501915
21401.3672	-93.451050
21404.2969	-93.415672
21407.2266	-93.326302
21410.1562	-93.308525
21413.0859	-93.399467
21416.0156	-93.438095
21418.9453	-93.435959
21421.8750	-93.416534
21424.8047	-93.438072
21427.7344	-93.518806
21430.6641	-93.578529
21433.5938	-93.649208
21436.5234	-93.590736
21439.4531	-93.473083
21442.3828	-93.403557
21445.3125	-93.359726
21448.2422	-93.417015
21451.1719	-93.480637
21454.1016	-93.475250
21457.0312	-93.498108
21459.9609	-93.536247
21462.8906	-93.594223
21465.8203	-93.638916
21468.7500	-93.663261
21471.6797	-93.651955
21474.6094	-93.606857
21477.5391	-93.642380
21480.4688	-93.669609
21483.3984	-93.603836
21486.3281	-93.595901
21489.2578	-93.600471
21492.1875	-93.544319
21495.1172	-93.510338
21498.0469	-93.584198
21500.9766	-93.658142
21503.9062	-93.621895
21506.8359	-93.660629
21509.7656	-93.735603
21512.6953	-93.744263
21515.6250	-93.698227
21518.5547	-93.670250
21521.4844	-93.672226
21524.4141	-93.635292
21527.3438	-93.666031
21530.2734	-93.741928
21533.2031	-93.746788
21536.1328	-93.698349
21539.0625	-93.677895
21541.9922	-93.657425
21544.9219	-93.644539
21547.8516	-93.673943
21550.7812	-93.704590
21553.7109	-93.685890
21556.6406	-93.687576
21559.5703	-93.784447
21562.5000	-93.791557
21565.4297	-93.678688
21568.3594	-93.693489
21571.2891	-93.792824
