;Freq(Hz)	Relative Amplitude (dB): Left
18410.1562	-91.469994
18413.0859	-91.530022
18416.0156	-91.549316
18418.9453	-91.535912
18421.8750	-91.488472
18424.8047	-91.463470
18427.7344	-91.507210
18430.6641	-91.596275
18433.5938	-91.657265
18436.5234	-91.632439
18439.4531	-91.628448
18442.3828	-91.680145
18445.3125	-91.697952
18448.2422	-91.736061
18451.1719	-91.734924
18454.1016	-91.675438
18457.0312	-91.650322
18459.9609	-91.635025
18462.8906	-91.628365
18465.8203	-91.647240
18468.7500	-91.714470
18471.6797	-91.716583
18474.6094	-91.687988
18477.5391	-91.739441
18480.4688	-91.779114
18483.3984	-91.784180
18486.3281	-91.756378
18489.2578	-91.759613
18492.1875	-91.819588
18495.1172	-91.853065
18498.0469	-91.917557
18500.9766	-91.953102
18503.9062	-91.909355
18506.8359	-91.907600
18509.7656	-91.928406
18512.6953	-91.903809
18515.6250	-91.883339
18518.5547	-91.921532
18521.4844	-91.964409
18524.4141	-92.024445
18527.3438	-92.087769
18530.2734	-92.072884
18533.2031	-92.065331
18536.1328	-92.113480
18539.0625	-92.180351
18541.9922	-92.195038
18544.9219	-92.127350
18547.8516	-92.078888
18550.7812	-92.083366
18553.7109	-92.118408
18556.6406	-92.197861
18559.5703	-92.305962
18562.5000	-92.340950
18565.4297	-92.274704
18568.3594	-92.228523
18571.2891	-92.235832
18574.2188	-92.269089
18577.1484	-92.295364
18580.0781	-92.316391
18583.0078	-92.399452
18585.9375	-92.444244
18588.8672	-92.420036
18591.7969	-92.420792
18594.7266	-92.405586
18597.6562	-92.366028
18600.5859	-92.398575
18603.5156	-92.468895
18606.4453	-92.488976
18609.3750	-92.500931
18612.3047	-92.492912
18615.2344	-92.485481
18618.1641	-92.542435
18621.0938	-92.591888
18624.0234	-92.627617
18626.9531	-92.633621
18629.8828	-92.608185
18632.8125	-92.654137
18635.7422	-92.705864
18638.6719	-92.712891
18641.6016	-92.757256
18644.5312	-92.797050
18647.4609	-92.726479
18650.3906	-92.703636
18653.3203	-92.797836
18656.2500	-92.813232
18659.1797	-92.834503
18662.1094	-92.905350
18665.0391	-92.925903
18667.9688	-92.955215
18670.8984	-93.037415
18673.8281	-93.108238
18676.7578	-93.101913
18679.6875	-93.079330
18682.6172	-93.095833
18685.5469	-93.129295
18688.4766	-93.106377
18691.4062	-93.086273
18694.3359	-93.135681
18697.2656	-93.275711
18700.1953	-93.393120
18703.1250	-93.346657
18706.0547	-93.278801
18708.9844	-93.296906
18711.9141	-93.317245
18714.8438	-93.306923
18717.7734	-93.289169
18720.7031	-93.240616
18723.6328	-93.208168
18726.5625	-93.258972
18729.4922	-93.329094
18732.4219	-93.415649
18735.3516	-93.518349
18738.2812	-93.513245
18741.2109	-93.424019
18744.1406	-93.389267
18747.0703	-93.489792
18750.0000	-93.583786
18752.9297	-93.474220
18755.8594	-93.388313
18758.7891	-93.486839
18761.7188	-93.622314
18764.6484	-93.670410
18767.5781	-93.661491
18770.5078	-93.668526
18773.4375	-93.726768
18776.3672	-93.819283
18779.2969	-93.845169
18782.2266	-93.860695
18785.1562	-93.851089
18788.0859	-93.828110
18791.0156	-93.851158
18793.9453	-93.862679
18796.8750	-93.927750
18799.8047	-93.993317
18802.7344	-94.008644
18805.6641	-94.052895
18808.5938	-94.049568
18811.5234	-93.968430
18814.4531	-93.998596
18817.3828	-94.159637
18820.3125	-94.203018
18823.2422	-94.149780
18826.1719	-94.154816
18829.1016	-94.174370
18832.0312	-94.156815
18834.9609	-94.132225
18837.8906	-94.168968
18840.8203	-94.221458
18843.7500	-94.307610
18846.6797	-94.442169
18849.6094	-94.526787
18852.5391	-94.491898
18855.4688	-94.498909
18858.3984	-94.423584
18861.3281	-94.395256
18864.2578	-94.508255
18867.1875	-94.573967
18870.1172	-94.584000
18873.0469	-94.641342
18875.9766	-94.673836
18878.9062	-94.619560
18881.8359	-94.583275
18884.7656	-94.571907
18887.6953	-94.550415
18890.6250	-94.543282
18893.5547	-94.585152
18896.4844	-94.596207
18899.4141	-94.555038
18902.3438	-94.648087
18905.2734	-94.754723
18908.2031	-94.743851
18911.1328	-94.772850
18914.0625	-94.829247
18916.9922	-94.807373
18919.9219	-94.817703
18922.8516	-94.894142
18925.7812	-94.963539
18928.7109	-95.040749
18931.6406	-95.092583
18934.5703	-95.119499
18937.5000	-95.174149
18940.4297	-95.226784
18943.3594	-95.222099
18946.2891	-95.125084
18949.2188	-95.018898
18952.1484	-95.092316
18955.0781	-95.197449
18958.0078	-95.232391
18960.9375	-95.316299
18963.8672	-95.361778
18966.7969	-95.344261
18969.7266	-95.362335
18972.6562	-95.426811
18975.5859	-95.506866
18978.5156	-95.592674
18981.4453	-95.651054
18984.3750	-95.639069
18987.3047	-95.618576
18990.2344	-95.661163
18993.1641	-95.710907
18996.0938	-95.636513
18999.0234	-95.589546
19001.9531	-95.782455
19004.8828	-95.902733
19007.8125	-95.796555
19010.7422	-95.779015
19013.6719	-95.907745
19016.6016	-96.025932
19019.5312	-96.059326
19022.4609	-96.042892
19025.3906	-96.063049
19028.3203	-96.151741
19031.2500	-96.160400
19034.1797	-96.171059
19037.1094	-96.298424
19040.0391	-96.394249
19042.9688	-96.375458
19045.8984	-96.296165
19048.8281	-96.353699
19051.7578	-96.484268
19054.6875	-96.496094
19057.6172	-96.524635
19060.5469	-96.536476
19063.4766	-96.455666
19066.4062	-96.440308
19069.3359	-96.503693
19072.2656	-96.540237
19075.1953	-96.576729
19078.1250	-96.710678
19081.0547	-96.867332
19083.9844	-96.881859
19086.9141	-96.826714
19089.8438	-96.768066
19092.7734	-96.738426
19095.7031	-96.859779
19098.6328	-96.978012
19101.5625	-96.886139
19104.4922	-96.882973
19107.4219	-97.055115
19110.3516	-97.135605
19113.2812	-97.183472
19116.2109	-97.244934
19119.1406	-97.285446
19122.0703	-97.326157
19125.0000	-97.348686
19127.9297	-97.475044
19130.8594	-97.617958
19133.7891	-97.521584
19136.7188	-97.470184
19139.6484	-97.600845
19142.5781	-97.646011
19145.5078	-97.729523
19148.4375	-97.838997
19151.3672	-97.833450
19154.2969	-97.837761
19157.2266	-97.960030
19160.1562	-97.997169
19163.0859	-97.951637
19166.0156	-97.980865
19168.9453	-97.978355
19171.8750	-98.075264
19174.8047	-98.149429
19177.7344	-98.107773
19180.6641	-97.965828
19183.5938	-97.828995
19186.5234	-98.001015
19189.4531	-98.213463
19192.3828	-98.325409
19195.3125	-98.577026
19198.2422	-98.797302
19201.1719	-98.846619
19204.1016	-98.781876
19207.0312	-98.659248
19209.9609	-98.557800
19212.8906	-98.719841
19215.8203	-98.860718
19218.7500	-98.776352
19221.6797	-98.777031
19224.6094	-98.842422
19227.5391	-98.947983
19230.4688	-99.082169
19233.3984	-99.078888
19236.3281	-99.090126
19239.2578	-99.211624
19242.1875	-99.295929
19245.1172	-99.371452
19248.0469	-99.487854
19250.9766	-99.584167
19253.9062	-99.585182
19256.8359	-99.620399
19259.7656	-99.659248
19262.6953	-99.668915
19265.6250	-99.754784
19268.5547	-99.951279
19271.4844	-100.036728
19274.4141	-99.892746
19277.3438	-99.924667
19280.2734	-99.947777
19283.2031	-99.780174
19286.1328	-100.043762
19289.0625	-100.496590
19291.9922	-100.491890
19294.9219	-100.420197
19297.8516	-100.655197
19300.7812	-100.787918
19303.7109	-100.665909
19306.6406	-100.776848
19309.5703	-101.025642
19312.5000	-101.175117
19315.4297	-101.212845
19318.3594	-101.012131
19321.2891	-100.848602
19324.2188	-101.051140
19327.1484	-101.399025
19330.0781	-101.506218
19333.0078	-101.486465
19335.9375	-101.577431
19338.8672	-101.726486
19341.7969	-101.768112
19344.7266	-101.632286
19347.6562	-101.618141
19350.5859	-101.833275
19353.5156	-101.975655
19356.4453	-102.078781
19359.3750	-102.049774
19362.3047	-102.202751
19365.2344	-102.504387
19368.1641	-102.564743
19371.0938	-102.565178
19374.0234	-102.671104
19376.9531	-102.919197
19379.8828	-102.861763
19382.8125	-102.210129
19385.7422	-102.193504
19388.6719	-102.914345
19391.6016	-103.210762
19394.5312	-103.283203
19397.4609	-103.181007
19400.3906	-103.130302
19403.3203	-103.407906
19406.2500	-103.589302
19409.1797	-103.821014
19412.1094	-103.960052
19415.0391	-103.952461
19417.9688	-104.114326
19420.8984	-104.071869
19423.8281	-103.920395
19426.7578	-104.007256
19429.6875	-104.328545
19432.6172	-104.651649
19435.5469	-104.725586
19438.4766	-104.855789
19441.4062	-104.969589
19444.3359	-104.803093
19447.2656	-104.760239
19450.1953	-105.175880
19453.1250	-105.687271
19456.0547	-105.728401
19458.9844	-105.630981
19461.9141	-105.610092
19464.8438	-105.831619
19467.7734	-106.351303
19470.7031	-106.653755
19473.6328	-106.784966
19476.5625	-106.849899
19479.4922	-106.912277
19482.4219	-107.311401
19485.3516	-107.639999
19488.2812	-107.611145
19491.2109	-107.678482
19494.1406	-107.995773
19497.0703	-108.188095
19500.0000	-108.004692
19502.9297	-108.226700
19505.8594	-108.655205
19508.7891	-108.919762
19511.7188	-109.088486
19514.6484	-109.155380
19517.5781	-109.404594
19520.5078	-109.546684
19523.4375	-109.866951
19526.3672	-110.561752
19529.2969	-111.431610
19532.2266	-111.620468
19535.1562	-110.872894
19538.0859	-110.561699
19541.0156	-111.099701
19543.9453	-111.699478
19546.8750	-111.733170
19549.8047	-112.199730
19552.7344	-112.809013
19555.6641	-113.116501
19558.5938	-113.545937
19561.5234	-113.681572
19564.4531	-113.170601
19567.3828	-113.820312
19570.3125	-115.054085
19573.2422	-116.013802
19576.1719	-116.385002
19579.1016	-116.073776
19582.0312	-115.193123
19584.9609	-115.449280
19587.8906	-116.976143
19590.8203	-116.802696
19593.7500	-116.477974
19596.6797	-116.187004
19599.6094	-118.156685
19602.5391	-122.188683
19605.4688	-120.998222
19608.3984	-120.682236
19611.3281	-124.661453
19614.2578	-125.284729
19617.1875	-123.565727
19620.1172	-122.514252
19623.0469	-123.336060
19625.9766	-126.325333
19628.9062	-127.225281
19631.8359	-125.733078
19634.7656	-124.781174
19637.6953	-126.078087
19640.6250	-127.501450
19643.5547	-127.148224
19646.4844	-121.239967
19649.4141	-118.157639
19652.3438	-118.234802
19655.2734	-119.353241
19658.2031	-119.640373
19661.1328	-119.341805
19664.0625	-118.664909
19666.9922	-117.333565
19669.9219	-116.202454
19672.8516	-115.853317
19675.7812	-116.052025
19678.7109	-116.084541
19681.6406	-115.291199
19684.5703	-114.338066
19687.5000	-113.881714
19690.4297	-114.034096
19693.3594	-113.301086
19696.2891	-112.891678
19699.2188	-113.360611
19702.1484	-112.580864
19705.0781	-111.692459
19708.0078	-111.490433
19710.9375	-111.156311
19713.8672	-110.651527
19716.7969	-110.467537
19719.7266	-110.077042
19722.6562	-109.684631
19725.5859	-109.761116
19728.5156	-110.123787
19731.4453	-110.174889
19734.3750	-109.580025
19737.3047	-109.031967
19740.2344	-109.040237
19743.1641	-108.742958
19746.0938	-107.743111
19749.0234	-107.250938
19751.9531	-107.338959
19754.8828	-107.154091
19757.8125	-106.835251
19760.7422	-106.779396
19763.6719	-106.719467
19766.6016	-106.602913
19769.5312	-106.380417
19772.4609	-106.054405
19775.3906	-105.941032
19778.3203	-105.969589
19781.2500	-105.726105
19784.1797	-105.616264
19787.1094	-105.665306
19790.0391	-105.355049
19792.9688	-104.903770
19795.8984	-104.437744
19798.8281	-104.110497
19801.7578	-104.298050
19804.6875	-104.377968
19807.6172	-104.154678
19810.5469	-104.203377
19813.4766	-104.076523
19816.4062	-103.566727
19819.3359	-103.356613
19822.2656	-103.466805
19825.1953	-103.345306
19828.1250	-103.069283
19831.0547	-103.202126
19833.9844	-103.451706
19836.9141	-103.172226
19839.8438	-102.627327
19842.7734	-102.269707
19845.7031	-102.400894
19848.6328	-102.908592
19851.5625	-102.888664
19854.4922	-102.415291
19857.4219	-102.016930
19860.3516	-101.759064
19863.2812	-101.698013
19866.2109	-101.559067
19869.1406	-101.294312
19872.0703	-101.278801
19875.0000	-101.278320
19877.9297	-101.122498
19880.8594	-101.109856
19883.7891	-100.994621
19886.7188	-100.744682
19889.6484	-100.641663
19892.5781	-100.634399
19895.5078	-100.446571
19898.4375	-100.048996
19901.3672	-99.936211
19904.2969	-100.048256
19907.2266	-99.990387
19910.1562	-99.996147
19913.0859	-99.961487
19916.0156	-99.860283
19918.9453	-99.706642
19921.8750	-99.479286
19924.8047	-99.393990
19927.7344	-99.405144
19930.6641	-99.322685
19933.5938	-99.120262
19936.5234	-98.906502
19939.4531	-98.719666
19942.3828	-98.644058
19945.3125	-98.588402
19948.2422	-98.478668
19951.1719	-98.447411
19954.1016	-98.421204
19957.0312	-98.338203
19959.9609	-98.220490
19962.8906	-98.130188
19965.8203	-98.030693
19968.7500	-97.912834
19971.6797	-97.899605
19974.6094	-97.848549
19977.5391	-97.699806
19980.4688	-97.651482
19983.3984	-97.635422
19986.3281	-97.472969
19989.2578	-97.355278
19992.1875	-97.397179
19995.1172	-97.243652
19998.0469	-96.858421
20000.9766	-96.723145
20003.9062	-96.863617
20006.8359	-96.919701
20009.7656	-96.804085
20012.6953	-96.654266
20015.6250	-96.590492
20018.5547	-96.578651
20021.4844	-96.556969
20024.4141	-96.480232
20027.3438	-96.424568
20030.2734	-96.400009
20033.2031	-96.346420
20036.1328	-96.272537
20039.0625	-96.131409
20041.9922	-96.000900
20044.9219	-95.912720
20047.8516	-95.789894
20050.7812	-95.693199
20053.7109	-95.685471
20056.6406	-95.525719
20059.5703	-95.409882
20062.5000	-95.472008
20065.4297	-95.427261
20068.3594	-95.303040
20071.2891	-95.309563
20074.2188	-95.292023
20077.1484	-95.177559
20080.0781	-95.133820
20083.0078	-95.062119
20085.9375	-94.927658
20088.8672	-94.894470
20091.7969	-94.859253
20094.7266	-94.735817
20097.6562	-94.641144
20100.5859	-94.594063
20103.5156	-94.500336
20106.4453	-94.382507
20109.3750	-94.280754
20112.3047	-94.178329
20115.2344	-94.143738
20118.1641	-94.139397
20121.0938	-94.095886
20124.0234	-94.002869
20126.9531	-93.885475
20129.8828	-93.832420
20132.8125	-93.818764
20135.7422	-93.756264
20138.6719	-93.714172
20141.6016	-93.649910
20144.5312	-93.562393
20147.4609	-93.600693
20150.3906	-93.551613
20153.3203	-93.323105
20156.2500	-93.191444
20159.1797	-93.168999
20162.1094	-93.151886
20165.0391	-93.091118
20167.9688	-93.010712
20170.8984	-92.976387
20173.8281	-92.935097
20176.7578	-92.868614
20179.6875	-92.783554
20182.6172	-92.737793
20185.5469	-92.694374
20188.4766	-92.635353
20191.4062	-92.577713
20194.3359	-92.528343
20197.2656	-92.597313
20200.1953	-92.564499
20203.1250	-92.382774
20206.0547	-92.289131
20208.9844	-92.255211
20211.9141	-92.198135
20214.8438	-92.120071
20217.7734	-92.094566
20220.7031	-92.048172
20223.6328	-91.961243
20226.5625	-91.893723
20229.4922	-91.847702
20232.4219	-91.828369
20235.3516	-91.738945
20238.2812	-91.617821
20241.2109	-91.598251
20244.1406	-91.616127
20247.0703	-91.603760
20250.0000	-91.528549
20252.9297	-91.459557
20255.8594	-91.384521
20258.7891	-91.288353
20261.7188	-91.247498
20264.6484	-91.216621
20267.5781	-91.134666
20270.5078	-91.082535
20273.4375	-91.085129
20276.3672	-91.055054
20279.2969	-90.934303
20282.2266	-90.825981
20285.1562	-90.797440
20288.0859	-90.759727
20291.0156	-90.716064
20293.9453	-90.655914
20296.8750	-90.462944
20299.8047	-90.354103
20302.7344	-90.395653
20305.6641	-90.399712
20308.5938	-90.368057
20311.5234	-90.319588
20314.4531	-90.269211
20317.3828	-90.208687
20320.3125	-90.150360
20323.2422	-90.100342
20326.1719	-90.034248
20329.1016	-89.972893
20332.0312	-89.929939
20334.9609	-89.882454
20337.8906	-89.838860
20340.8203	-89.759987
20343.7500	-89.692833
20346.6797	-89.732185
20349.6094	-89.744110
20352.5391	-89.613243
20355.4688	-89.470863
20358.3984	-89.394211
20361.3281	-89.359245
20364.2578	-89.315628
20367.1875	-89.258812
20370.1172	-89.203819
20373.0469	-89.163605
20375.9766	-89.149086
20378.9062	-89.102875
20381.8359	-89.002357
20384.7656	-88.927612
20387.6953	-88.909775
20390.6250	-88.879578
20393.5547	-88.841492
20396.4844	-88.772469
20399.4141	-88.672073
20402.3438	-88.627235
20405.2734	-88.610367
20408.2031	-88.582962
20411.1328	-88.529694
20414.0625	-88.450096
20416.9922	-88.383652
20419.9219	-88.341728
20422.8516	-88.304718
20425.7812	-88.261993
20428.7109	-88.242813
20431.6406	-88.217667
20434.5703	-88.146172
20437.5000	-88.087471
20440.4297	-88.067429
20443.3594	-88.025940
20446.2891	-87.929283
20449.2188	-87.812180
20452.1484	-87.732239
20455.0781	-87.720879
20458.0078	-87.721039
20460.9375	-87.676277
20463.8672	-87.645012
20466.7969	-87.628357
20469.7266	-87.562950
20472.6562	-87.488731
20475.5859	-87.461098
20478.5156	-87.434944
20481.4453	-87.379059
20484.3750	-87.313728
20487.3047	-87.249847
20490.2344	-87.171211
20493.1641	-87.098709
20496.0938	-87.140106
20499.0234	-87.182152
20501.9531	-87.039055
20504.8828	-86.935699
20507.8125	-86.952400
20510.7422	-86.917137
20513.6719	-86.852066
20516.6016	-86.803627
20519.5312	-86.752426
20522.4609	-86.697929
20525.3906	-86.621239
20528.3203	-86.553795
20531.2500	-86.555023
20534.1797	-86.547859
20537.1094	-86.471397
20540.0391	-86.397186
20542.9688	-86.361740
20545.8984	-86.365341
20548.8281	-86.376549
20551.7578	-86.320976
20554.6875	-86.234962
20557.6172	-86.189186
20560.5469	-86.172897
20563.4766	-86.120316
20566.4062	-86.054184
20569.3359	-86.006775
20572.2656	-85.962509
20575.1953	-85.922264
20578.1250	-85.856575
20581.0547	-85.803787
20583.9844	-85.793373
20586.9141	-85.757874
20589.8438	-85.720695
20592.7734	-85.697189
20595.7031	-85.641472
20598.6328	-85.598656
20601.5625	-85.560921
20604.4922	-85.547432
20607.4219	-85.518745
20610.3516	-85.464386
20613.2812	-85.392624
20616.2109	-85.330254
20619.1406	-85.280518
20622.0703	-85.242302
20625.0000	-85.194359
20627.9297	-85.149300
20630.8594	-85.098541
20633.7891	-85.037140
20636.7188	-84.984093
20639.6484	-84.934303
20642.5781	-84.869026
20645.5078	-84.780785
20648.4375	-84.716812
20651.3672	-84.691902
20654.2969	-84.653976
20657.2266	-84.614372
20660.1562	-84.568962
20663.0859	-84.526070
20666.0156	-84.484924
20668.9453	-84.413872
20671.8750	-84.366180
20674.8047	-84.338684
20677.7344	-84.281029
20680.6641	-84.204063
20683.5938	-84.149780
20686.5234	-84.141045
20689.4531	-84.100502
20692.3828	-84.002518
20695.3125	-83.902191
20698.2422	-83.813522
20701.1719	-83.796387
20704.1016	-83.826111
20707.0312	-83.802917
20709.9609	-83.740067
20712.8906	-83.706276
20715.8203	-83.680435
20718.7500	-83.620384
20721.6797	-83.560066
20724.6094	-83.525421
20727.5391	-83.498581
20730.4688	-83.437454
20733.3984	-83.359589
20736.3281	-83.312920
20739.2578	-83.258423
20742.1875	-83.193680
20745.1172	-83.184677
20748.0469	-83.183624
20750.9766	-83.128021
20753.9062	-83.063385
20756.8359	-83.012886
20759.7656	-82.963829
20762.6953	-82.923813
20765.6250	-82.877480
20768.5547	-82.822121
20771.4844	-82.780396
20774.4141	-82.740639
20777.3438	-82.689125
20780.2734	-82.649902
20783.2031	-82.610001
20786.1328	-82.549988
20789.0625	-82.495789
20791.9922	-82.451126
20794.9219	-82.392708
20797.8516	-82.282440
20800.7812	-82.237183
20803.7109	-82.272339
20806.6406	-82.244713
20809.5703	-82.186668
20812.5000	-82.128105
20815.4297	-82.064888
20818.3594	-82.020386
20821.2891	-81.976677
20824.2188	-81.918884
20827.1484	-81.868011
20830.0781	-81.841949
20833.0078	-81.807648
20835.9375	-81.743492
20838.8672	-81.691605
20841.7969	-81.648239
20844.7266	-81.599220
20847.6562	-81.572845
20850.5859	-81.522865
20853.5156	-81.447510
20856.4453	-81.406174
20859.3750	-81.383026
20862.3047	-81.351089
20865.2344	-81.306282
20868.1641	-81.258537
20871.0938	-81.211121
20874.0234	-81.172882
20876.9531	-81.141922
20879.8828	-81.083321
20882.8125	-81.022011
20885.7422	-80.978691
20888.6719	-80.925583
20891.6016	-80.881035
20894.5312	-80.831459
20897.4609	-80.753967
20900.3906	-80.698288
20903.3203	-80.682327
20906.2500	-80.664230
20909.1797	-80.627495
20912.1094	-80.589088
20915.0391	-80.551521
20917.9688	-80.513626
20920.8984	-80.472298
20923.8281	-80.423973
20926.7578	-80.375366
20929.6875	-80.339348
20932.6172	-80.302139
20935.5469	-80.267212
20938.4766	-80.229584
20941.4062	-80.182693
20944.3359	-80.144142
20947.2656	-80.114670
20950.1953	-80.062759
20953.1250	-79.991364
20956.0547	-79.937477
20958.9844	-79.905907
20961.9141	-79.839249
20964.8438	-79.762978
20967.7734	-79.729935
20970.7031	-79.699188
20973.6328	-79.637619
20976.5625	-79.575470
20979.4922	-79.530693
20982.4219	-79.465210
20985.3516	-79.392525
20988.2812	-79.343346
20991.2109	-79.298294
20994.1406	-79.247963
20997.0703	-79.218040
21000.0000	-79.152435
21002.9297	-79.049255
21005.8594	-78.993080
21008.7891	-78.965126
21011.7188	-78.924347
21014.6484	-78.861809
21017.5781	-78.812134
21020.5078	-78.763168
21023.4375	-78.694801
21026.3672	-78.628281
21029.2969	-78.577072
21032.2266	-78.529716
21035.1562	-78.478722
21038.0859	-78.427376
21041.0156	-78.365059
21043.9453	-78.305344
21046.8750	-78.227608
21049.8047	-78.142838
21052.7344	-78.121132
21055.6641	-78.120811
21058.5938	-78.073296
21061.5234	-78.000832
21064.4531	-77.941055
21067.3828	-77.899269
21070.3125	-77.849648
21073.2422	-77.795639
21076.1719	-77.757187
21079.1016	-77.709068
21082.0312	-77.640762
21084.9609	-77.577110
21087.8906	-77.523773
21090.8203	-77.475815
21093.7500	-77.420822
21096.6797	-77.350441
21099.6094	-77.292267
21102.5391	-77.260010
21105.4688	-77.219566
21108.3984	-77.162506
21111.3281	-77.098129
21114.2578	-77.034782
21117.1875	-76.994698
21120.1172	-76.948898
21123.0469	-76.875191
21125.9766	-76.813797
21128.9062	-76.772667
21131.8359	-76.730270
21134.7656	-76.672005
21137.6953	-76.596497
21140.6250	-76.525963
21143.5547	-76.482895
21146.4844	-76.453529
21149.4141	-76.412956
21152.3438	-76.340988
21155.2734	-76.256920
21158.2031	-76.214561
21161.1328	-76.176041
21164.0625	-76.099670
21166.9922	-76.024628
21169.9219	-75.973854
21172.8516	-75.929680
21175.7812	-75.870209
21178.7109	-75.800880
21181.6406	-75.745064
21184.5703	-75.697159
21187.5000	-75.636963
21190.4297	-75.575188
21193.3594	-75.507164
21196.2891	-75.446228
21199.2188	-75.406166
21202.1484	-75.343918
21205.0781	-75.270630
21208.0078	-75.207771
21210.9375	-75.150002
21213.8672	-75.109283
21216.7969	-75.064629
21219.7266	-74.999550
21222.6562	-74.935188
21225.5859	-74.882721
21228.5156	-74.830582
21231.4453	-74.777161
21234.3750	-74.711647
21237.3047	-74.630676
21240.2344	-74.570938
21243.1641	-74.532455
21246.0938	-74.482185
21249.0234	-74.421417
21251.9531	-74.364021
21254.8828	-74.308304
21257.8125	-74.244919
21260.7422	-74.174721
21263.6719	-74.105415
21266.6016	-74.034004
21269.5312	-73.959053
21272.4609	-73.892250
21275.3906	-73.829140
21278.3203	-73.759422
21281.2500	-73.683807
21284.1797	-73.611366
21287.1094	-73.542549
21290.0391	-73.469093
21292.9688	-73.399162
21295.8984	-73.342735
21298.8281	-73.284752
21301.7578	-73.188599
21304.6875	-73.090790
21307.6172	-73.027237
21310.5469	-72.968445
21313.4766	-72.906586
21316.4062	-72.838417
21319.3359	-72.759521
21322.2656	-72.685631
21325.1953	-72.616188
21328.1250	-72.549232
21331.0547	-72.488869
21333.9844	-72.418755
21336.9141	-72.341499
21339.8438	-72.271233
21342.7734	-72.195427
21345.7031	-72.114204
21348.6328	-72.035667
21351.5625	-71.966896
21354.4922	-71.918259
21357.4219	-71.854904
21360.3516	-71.764290
21363.2812	-71.675423
21366.2109	-71.597343
21369.1406	-71.531708
21372.0703	-71.469566
21375.0000	-71.399010
21377.9297	-71.312042
21380.8594	-71.212875
21383.7891	-71.129860
21386.7188	-71.068977
21389.6484	-71.000107
21392.5781	-70.919525
21395.5078	-70.833466
21398.4375	-70.737915
21401.3672	-70.663269
21404.2969	-70.597260
21407.2266	-70.514526
21410.1562	-70.436943
21413.0859	-70.360268
21416.0156	-70.285065
21418.9453	-70.208321
21421.8750	-70.120995
21424.8047	-70.033463
21427.7344	-69.954788
21430.6641	-69.864304
21433.5938	-69.766296
21436.5234	-69.678169
21439.4531	-69.592903
21442.3828	-69.501404
21445.3125	-69.409286
21448.2422	-69.317879
21451.1719	-69.221153
21454.1016	-69.126259
21457.0312	-69.027718
21459.9609	-68.908272
21462.8906	-68.789619
21465.8203	-68.682510
21468.7500	-68.588425
21471.6797	-68.510017
21474.6094	-68.424835
21477.5391	-68.320450
21480.4688	-68.213043
21483.3984	-68.103897
21486.3281	-67.984146
21489.2578	-67.874565
21492.1875	-67.769821
21495.1172	-67.667984
21498.0469	-67.578506
21500.9766	-67.471367
21503.9062	-67.350128
21506.8359	-67.237984
21509.7656	-67.125153
21512.6953	-67.015182
21515.6250	-66.919159
21518.5547	-66.819237
21521.4844	-66.707161
21524.4141	-66.592468
21527.3438	-66.477921
21530.2734	-66.364464
21533.2031	-66.249382
21536.1328	-66.127060
21539.0625	-65.997971
21541.9922	-65.866928
21544.9219	-65.727814
21547.8516	-65.571243
21550.7812	-65.429359
21553.7109	-65.322670
21556.6406	-65.215279
21559.5703	-65.098244
21562.5000	-64.984566
21565.4297	-64.859970
21568.3594	-64.709427
21571.2891	-64.553490
21574.2188	-64.406685
21577.1484	-64.252853
21580.0781	-64.099480
21583.0078	-63.961311
21585.9375	-63.828926
21588.8672	-63.696060
21591.7969	-63.554966
21594.7266	-63.405422
21597.6562	-63.257320
