;Freq(Hz)	Relative Amplitude (dB): Left
17979.4922	-62.044056
17982.4219	-62.038044
17985.3516	-62.033165
17988.2812	-62.028999
17991.2109	-62.025017
17994.1406	-62.022236
17997.0703	-62.019028
18000.0000	-62.014397
18002.9297	-62.010590
18005.8594	-62.004013
18008.7891	-61.997337
18011.7188	-61.993687
18014.6484	-61.988918
18017.5781	-61.987011
18020.5078	-61.987556
18023.4375	-61.987579
18026.3672	-61.987434
18029.2969	-61.983894
18032.2266	-61.979244
18035.1562	-61.975071
18038.0859	-61.967400
18041.0156	-61.959106
18043.9453	-61.952602
18046.8750	-61.944279
18049.8047	-61.935795
18052.7344	-61.932682
18055.6641	-61.928818
18058.5938	-61.923538
18061.5234	-61.920193
18064.4531	-61.913776
18067.3828	-61.909420
18070.3125	-61.906357
18073.2422	-61.901638
18076.1719	-61.897667
18079.1016	-61.894093
18082.0312	-61.893177
18084.9609	-61.887554
18087.8906	-61.877136
18090.8203	-61.874229
18093.7500	-61.873379
18096.6797	-61.866970
18099.6094	-61.862686
18102.5391	-61.860806
18105.4688	-61.854511
18108.3984	-61.849533
18111.3281	-61.850128
18114.2578	-61.849503
18117.1875	-61.847511
18120.1172	-61.849247
18123.0469	-61.850136
18125.9766	-61.845650
18128.9062	-61.842098
18131.8359	-61.842117
18134.7656	-61.841087
18137.6953	-61.840401
18140.6250	-61.843422
18143.5547	-61.845196
18146.4844	-61.843086
18149.4141	-61.842205
18152.3438	-61.845989
18155.2734	-61.847889
18158.2031	-61.846436
18161.1328	-61.842781
18164.0625	-61.835373
18166.9922	-61.825626
18169.9219	-61.813812
18172.8516	-61.803444
18175.7812	-61.794300
18178.7109	-61.785107
18181.6406	-61.778709
18184.5703	-61.770596
18187.5000	-61.758884
18190.4297	-61.749939
18193.3594	-61.742744
18196.2891	-61.735676
18199.2188	-61.730576
18202.1484	-61.724167
18205.0781	-61.716450
18208.0078	-61.711761
18210.9375	-61.709396
18213.8672	-61.702641
18216.7969	-61.693821
18219.7266	-61.686874
18222.6562	-61.681789
18225.5859	-61.678295
18228.5156	-61.672176
18231.4453	-61.667141
18234.3750	-61.665825
18237.3047	-61.662422
18240.2344	-61.656170
18243.1641	-61.649525
18246.0938	-61.643475
18249.0234	-61.638786
18251.9531	-61.636082
18254.8828	-61.634789
18257.8125	-61.632420
18260.7422	-61.626118
18263.6719	-61.618469
18266.6016	-61.615173
18269.5312	-61.615143
18272.4609	-61.612694
18275.3906	-61.606098
18278.3203	-61.602779
18281.2500	-61.604839
18284.1797	-61.603912
18287.1094	-61.599022
18290.0391	-61.594345
18292.9688	-61.593857
18295.8984	-61.598179
18298.8281	-61.598595
18301.7578	-61.592442
18304.6875	-61.589058
18307.6172	-61.588661
18310.5469	-61.587864
18313.4766	-61.589905
18316.4062	-61.591572
18319.3359	-61.591583
18322.2656	-61.591934
18325.1953	-61.590263
18328.1250	-61.589367
18331.0547	-61.593124
18333.9844	-61.586704
18336.9141	-61.575146
18339.8438	-61.562992
18342.7734	-61.551956
18345.7031	-61.539955
18348.6328	-61.531452
18351.5625	-61.523396
18354.4922	-61.514774
18357.4219	-61.506248
18360.3516	-61.495205
18363.2812	-61.487392
18366.2109	-61.484676
18369.1406	-61.481731
18372.0703	-61.475712
18375.0000	-61.467422
18377.9297	-61.460846
18380.8594	-61.454288
18383.7891	-61.444195
18386.7188	-61.437393
18389.6484	-61.437016
18392.5781	-61.434685
18395.5078	-61.427399
18398.4375	-61.420017
18401.3672	-61.415405
18404.2969	-61.412128
18407.2266	-61.406586
18410.1562	-61.399670
18413.0859	-61.393085
18416.0156	-61.386452
18418.9453	-61.381893
18421.8750	-61.381207
18424.8047	-61.380726
18427.7344	-61.375572
18430.6641	-61.367535
18433.5938	-61.361759
18436.5234	-61.358368
18439.4531	-61.356903
18442.3828	-61.354549
18445.3125	-61.348888
18448.2422	-61.346130
18451.1719	-61.342186
18454.1016	-61.337891
18457.0312	-61.342621
18459.9609	-61.346722
18462.8906	-61.343864
18465.8203	-61.340027
18468.7500	-61.338078
18471.6797	-61.338955
18474.6094	-61.338795
18477.5391	-61.337193
18480.4688	-61.337746
18483.3984	-61.336639
18486.3281	-61.334892
18489.2578	-61.337505
18492.1875	-61.340046
18495.1172	-61.340069
18498.0469	-61.340942
18500.9766	-61.340202
18503.9062	-61.342476
18506.8359	-61.339966
18509.7656	-61.330784
18512.6953	-61.315441
18515.6250	-61.303490
18518.5547	-61.295704
18521.4844	-61.289886
18524.4141	-61.283859
18527.3438	-61.279984
18530.2734	-61.275021
18533.2031	-61.265560
18536.1328	-61.257214
18539.0625	-61.249672
18541.9922	-61.242687
18544.9219	-61.237148
18547.8516	-61.233204
18550.7812	-61.229694
18553.7109	-61.218632
18556.6406	-61.206951
18559.5703	-61.205105
18562.5000	-61.206013
18565.4297	-61.201889
18568.3594	-61.196045
18571.2891	-61.192966
18574.2188	-61.189983
18577.1484	-61.185390
18580.0781	-61.180214
18583.0078	-61.174301
18585.9375	-61.169502
18588.8672	-61.166660
18591.7969	-61.165649
18594.7266	-61.160927
18597.6562	-61.152905
18600.5859	-61.147762
18603.5156	-61.144020
18606.4453	-61.141960
18609.3750	-61.139652
18612.3047	-61.135727
18615.2344	-61.130295
18618.1641	-61.124928
18621.0938	-61.122059
18624.0234	-61.119152
18626.9531	-61.117676
18629.8828	-61.117905
18632.8125	-61.114761
18635.7422	-61.105759
18638.6719	-61.097641
18641.6016	-61.092552
18644.5312	-61.090405
18647.4609	-61.085026
18650.3906	-61.077271
18653.3203	-61.069412
18656.2500	-61.061661
18659.1797	-61.055687
18662.1094	-61.051640
18665.0391	-61.048225
18667.9688	-61.039669
18670.8984	-61.030571
18673.8281	-61.026615
18676.7578	-61.023148
18679.6875	-61.020351
18682.6172	-61.016911
18685.5469	-61.013794
18688.4766	-61.012909
18691.4062	-61.012810
18694.3359	-61.012192
18697.2656	-61.009212
18700.1953	-61.005795
18703.1250	-61.002377
18706.0547	-61.002037
18708.9844	-61.007698
18711.9141	-61.013710
18714.8438	-61.015411
18717.7734	-61.015808
18720.7031	-61.019417
18723.6328	-61.023598
18726.5625	-61.026756
18729.4922	-61.031902
18732.4219	-61.037735
18735.3516	-61.041733
18738.2812	-61.049175
18741.2109	-61.062492
18744.1406	-61.076481
18747.0703	-61.087315
18750.0000	-61.092091
18752.9297	-61.097523
18755.8594	-61.112305
18758.7891	-61.130745
18761.7188	-61.142300
18764.6484	-61.146378
18767.5781	-61.150684
18770.5078	-61.153927
18773.4375	-61.158516
18776.3672	-61.160229
18779.2969	-61.161163
18782.2266	-61.164177
18785.1562	-61.164158
18788.0859	-61.163937
18791.0156	-61.164951
18793.9453	-61.163879
18796.8750	-61.160686
18799.8047	-61.158897
18802.7344	-61.160881
18805.6641	-61.161304
18808.5938	-61.155407
18811.5234	-61.151485
18814.4531	-61.151764
18817.3828	-61.146782
18820.3125	-61.139687
18823.2422	-61.137501
18826.1719	-61.136189
18829.1016	-61.131466
18832.0312	-61.124325
18834.9609	-61.114460
18837.8906	-61.108383
18840.8203	-61.109409
18843.7500	-61.108002
18846.6797	-61.102497
18849.6094	-61.097542
18852.5391	-61.092892
18855.4688	-61.088223
18858.3984	-61.082161
18861.3281	-61.075130
18864.2578	-61.070229
18867.1875	-61.064163
18870.1172	-61.057220
18873.0469	-61.051888
18875.9766	-61.044979
18878.9062	-61.037735
18881.8359	-61.033112
18884.7656	-61.029785
18887.6953	-61.025806
18890.6250	-61.021503
18893.5547	-61.017929
18896.4844	-61.016495
18899.4141	-61.012058
18902.3438	-61.004448
18905.2734	-60.999050
18908.2031	-60.993248
18911.1328	-60.988003
18914.0625	-60.982952
18916.9922	-60.979053
18919.9219	-60.976089
18922.8516	-60.970978
18925.7812	-60.964870
18928.7109	-60.957298
18931.6406	-60.950237
18934.5703	-60.939213
18937.5000	-60.923561
18940.4297	-60.908756
18943.3594	-60.894096
18946.2891	-60.880997
18949.2188	-60.866749
18952.1484	-60.853104
18955.0781	-60.839275
18958.0078	-60.823013
18960.9375	-60.807850
18963.8672	-60.796127
18966.7969	-60.787376
18969.7266	-60.778664
18972.6562	-60.766979
18975.5859	-60.753868
18978.5156	-60.743168
18981.4453	-60.734592
18984.3750	-60.723511
18987.3047	-60.712173
18990.2344	-60.701046
18993.1641	-60.690197
18996.0938	-60.683277
18999.0234	-60.675251
19001.9531	-60.663242
19004.8828	-60.652966
19007.8125	-60.644497
19010.7422	-60.631889
19013.6719	-60.619587
19016.6016	-60.610516
19019.5312	-60.602013
19022.4609	-60.593918
19025.3906	-60.585354
19028.3203	-60.578403
19031.2500	-60.571823
19034.1797	-60.564575
19037.1094	-60.559586
19040.0391	-60.553356
19042.9688	-60.543724
19045.8984	-60.537678
19048.8281	-60.536446
19051.7578	-60.537163
19054.6875	-60.538368
19057.6172	-60.534241
19060.5469	-60.527954
19063.4766	-60.522827
19066.4062	-60.515610
19069.3359	-60.511803
19072.2656	-60.511036
19075.1953	-60.509071
19078.1250	-60.505951
19081.0547	-60.502487
19083.9844	-60.499443
19086.9141	-60.494678
19089.8438	-60.490749
19092.7734	-60.490746
19095.7031	-60.493298
19098.6328	-60.492596
19101.5625	-60.491646
19104.4922	-60.494381
19107.4219	-60.486824
19110.3516	-60.476070
19113.2812	-60.464928
19116.2109	-60.456944
19119.1406	-60.452980
19122.0703	-60.441822
19125.0000	-60.429756
19127.9297	-60.422058
19130.8594	-60.413601
19133.7891	-60.405354
19136.7188	-60.398037
19139.6484	-60.392658
19142.5781	-60.384216
19145.5078	-60.374500
19148.4375	-60.372639
19151.3672	-60.369625
19154.2969	-60.362896
19157.2266	-60.356121
19160.1562	-60.345535
19163.0859	-60.338402
19166.0156	-60.335556
19168.9453	-60.330032
19171.8750	-60.323734
19174.8047	-60.317009
19177.7344	-60.309380
19180.6641	-60.306496
19183.5938	-60.306431
19186.5234	-60.303284
19189.4531	-60.299454
19192.3828	-60.295948
19195.3125	-60.290726
19198.2422	-60.285934
19201.1719	-60.283276
19204.1016	-60.279301
19207.0312	-60.274643
19209.9609	-60.272381
19212.8906	-60.270893
19215.8203	-60.267113
19218.7500	-60.262669
19221.6797	-60.259708
19224.6094	-60.258392
19227.5391	-60.258957
19230.4688	-60.259716
19233.3984	-60.258156
19236.3281	-60.251213
19239.2578	-60.244572
19242.1875	-60.240856
19245.1172	-60.236752
19248.0469	-60.230793
19250.9766	-60.221493
19253.9062	-60.213238
19256.8359	-60.208157
19259.7656	-60.204887
19262.6953	-60.203651
19265.6250	-60.197838
19268.5547	-60.189133
19271.4844	-60.187378
19274.4141	-60.186874
19277.3438	-60.182442
19280.2734	-60.176731
19283.2031	-60.170761
19286.1328	-60.165913
19289.0625	-60.162987
19291.9922	-60.160294
19294.9219	-60.157337
19297.8516	-60.155590
19300.7812	-60.153954
19303.7109	-60.151123
19306.6406	-60.147949
19309.5703	-60.146755
19312.5000	-60.145458
19315.4297	-60.143658
19318.3594	-60.143219
19321.2891	-60.139919
19324.2188	-60.136806
19327.1484	-60.138474
19330.0781	-60.138573
19333.0078	-60.135708
19335.9375	-60.135094
19338.8672	-60.136230
19341.7969	-60.136730
19344.7266	-60.133919
19347.6562	-60.130234
19350.5859	-60.133335
19353.5156	-60.137444
19356.4453	-60.135811
19359.3750	-60.132885
19362.3047	-60.133259
19365.2344	-60.132397
19368.1641	-60.127579
19371.0938	-60.116653
19374.0234	-60.106823
19376.9531	-60.097530
19379.8828	-60.087673
19382.8125	-60.080788
19385.7422	-60.073292
19388.6719	-60.064880
19391.6016	-60.058292
19394.5312	-60.051399
19397.4609	-60.043491
19400.3906	-60.035297
19403.3203	-60.027878
19406.2500	-60.021236
19409.1797	-60.018738
19412.1094	-60.016129
19415.0391	-60.007656
19417.9688	-59.999237
19420.8984	-59.994740
19423.8281	-59.990360
19426.7578	-59.983429
19429.6875	-59.979031
19432.6172	-59.975060
19435.5469	-59.968071
19438.4766	-59.964272
19441.4062	-59.960751
19444.3359	-59.957001
19447.2656	-59.953930
19450.1953	-59.947010
19453.1250	-59.941807
19456.0547	-59.940807
19458.9844	-59.938774
19461.9141	-59.933968
19464.8438	-59.930107
19467.7734	-59.929165
19470.7031	-59.925297
19473.6328	-59.918045
19476.5625	-59.912964
19479.4922	-59.909225
19482.4219	-59.907665
19485.3516	-59.907444
19488.2812	-59.906631
19491.2109	-59.905338
19494.1406	-59.903252
19497.0703	-59.904762
19500.0000	-59.905113
19502.9297	-59.900871
19505.8594	-59.898102
19508.7891	-59.897469
19511.7188	-59.896301
19514.6484	-59.897095
19517.5781	-59.899185
19520.5078	-59.896889
19523.4375	-59.895447
19526.3672	-59.897312
19529.2969	-59.899433
19532.2266	-59.900772
19535.1562	-59.902145
19538.0859	-59.895206
19541.0156	-59.885235
19543.9453	-59.873058
19546.8750	-59.863197
19549.8047	-59.856339
19552.7344	-59.845371
19555.6641	-59.834133
19558.5938	-59.828583
19561.5234	-59.824612
19564.4531	-59.818024
19567.3828	-59.811256
19570.3125	-59.804226
19573.2422	-59.793522
19576.1719	-59.785416
19579.1016	-59.783310
19582.0312	-59.779274
19584.9609	-59.770172
19587.8906	-59.761837
19590.8203	-59.756031
19593.7500	-59.749180
19596.6797	-59.742462
19599.6094	-59.739216
19602.5391	-59.736328
19605.4688	-59.730450
19608.3984	-59.722645
19611.3281	-59.715412
19614.2578	-59.709972
19617.1875	-59.705418
19620.1172	-59.703403
19623.0469	-59.702984
19625.9766	-59.699348
19628.9062	-59.693604
19631.8359	-59.689228
19634.7656	-59.684696
19637.6953	-59.679821
19640.6250	-59.675617
19643.5547	-59.669823
19646.4844	-59.664799
19649.4141	-59.663715
19652.3438	-59.662601
19655.2734	-59.662411
19658.2031	-59.664600
19661.1328	-59.660557
19664.0625	-59.654781
19666.9922	-59.651241
19669.9219	-59.647411
19672.8516	-59.639824
19675.7812	-59.630173
19678.7109	-59.624653
19681.6406	-59.621574
19684.5703	-59.614323
19687.5000	-59.604954
19690.4297	-59.598721
19693.3594	-59.595032
19696.2891	-59.592499
19699.2188	-59.589371
19702.1484	-59.583595
19705.0781	-59.579758
19708.0078	-59.575684
19710.9375	-59.569302
19713.8672	-59.564384
19716.7969	-59.561249
19719.7266	-59.559410
19722.6562	-59.556484
19725.5859	-59.551075
19728.5156	-59.542645
19731.4453	-59.535603
19734.3750	-59.532303
19737.3047	-59.529919
19740.2344	-59.530075
19743.1641	-59.530422
19746.0938	-59.530010
19749.0234	-59.529110
19751.9531	-59.526993
19754.8828	-59.528759
19757.8125	-59.528702
19760.7422	-59.522572
19763.6719	-59.518063
19766.6016	-59.517509
19769.5312	-59.518032
19772.4609	-59.515862
19775.3906	-59.514996
19778.3203	-59.516361
19781.2500	-59.515755
19784.1797	-59.515644
19787.1094	-59.515381
19790.0391	-59.514530
19792.9688	-59.514862
19795.8984	-59.507050
19798.8281	-59.496162
19801.7578	-59.485603
19804.6875	-59.476364
19807.6172	-59.465263
19810.5469	-59.454815
19813.4766	-59.444725
19816.4062	-59.437443
19819.3359	-59.429749
19822.2656	-59.418743
19825.1953	-59.410622
19828.1250	-59.402916
19831.0547	-59.393604
19833.9844	-59.386421
19836.9141	-59.380257
19839.8438	-59.373230
19842.7734	-59.366840
19845.7031	-59.362965
19848.6328	-59.356174
19851.5625	-59.348789
19854.4922	-59.345184
19857.4219	-59.337723
19860.3516	-59.327717
19863.2812	-59.320747
19866.2109	-59.314850
19869.1406	-59.306622
19872.0703	-59.298618
19875.0000	-59.293770
19877.9297	-59.291191
19880.8594	-59.289387
19883.7891	-59.285297
19886.7188	-59.279640
19889.6484	-59.274712
19892.5781	-59.270226
19895.5078	-59.263248
19898.4375	-59.256348
19901.3672	-59.252583
19904.2969	-59.246655
19907.2266	-59.240154
19910.1562	-59.234528
19913.0859	-59.229874
19916.0156	-59.228970
19918.9453	-59.228886
19921.8750	-59.227558
19924.8047	-59.225613
19927.7344	-59.223038
19930.6641	-59.217819
19933.5938	-59.213310
19936.5234	-59.214466
19939.4531	-59.214939
19942.3828	-59.213127
19945.3125	-59.212677
19948.2422	-59.210274
19951.1719	-59.206009
19954.1016	-59.202431
19957.0312	-59.201694
19959.9609	-59.202541
19962.8906	-59.202778
19965.8203	-59.198162
19968.7500	-59.188831
19971.6797	-59.179710
19974.6094	-59.165867
19977.5391	-59.154236
19980.4688	-59.144169
19983.3984	-59.129704
19986.3281	-59.118664
19989.2578	-59.112782
19992.1875	-59.100880
19995.1172	-59.087490
19998.0469	-59.078857
20000.9766	-59.070396
20003.9062	-59.062130
20006.8359	-59.051994
20009.7656	-59.039791
20012.6953	-59.028721
20015.6250	-59.018982
20018.5547	-59.009674
20021.4844	-59.002151
20024.4141	-58.994869
20027.3438	-58.985172
20030.2734	-58.973537
20033.2031	-58.963165
20036.1328	-58.953953
20039.0625	-58.941723
20041.9922	-58.931450
20044.9219	-58.924267
20047.8516	-58.914600
20050.7812	-58.904442
20053.7109	-58.896122
20056.6406	-58.888176
20059.5703	-58.878490
20062.5000	-58.866714
20065.4297	-58.856068
20068.3594	-58.846313
20071.2891	-58.836578
20074.2188	-58.827473
20077.1484	-58.816479
20080.0781	-58.805645
20083.0078	-58.798141
20085.9375	-58.791313
20088.8672	-58.780663
20091.7969	-58.768745
20094.7266	-58.758804
20097.6562	-58.746136
20100.5859	-58.730011
20103.5156	-58.711430
20106.4453	-58.693638
20109.3750	-58.677925
20112.3047	-58.662373
20115.2344	-58.644051
20118.1641	-58.626293
20121.0938	-58.608902
20124.0234	-58.588360
20126.9531	-58.569477
20129.8828	-58.552612
20132.8125	-58.531120
20135.7422	-58.506859
20138.6719	-58.486156
20141.6016	-58.466133
20144.5312	-58.442764
20147.4609	-58.419689
20150.3906	-58.400627
20153.3203	-58.382244
20156.2500	-58.357197
20159.1797	-58.333385
20162.1094	-58.318302
20165.0391	-58.303818
20167.9688	-58.288044
20170.8984	-58.276775
20173.8281	-58.267715
20176.7578	-58.258080
20179.6875	-58.250854
20182.6172	-58.241474
20185.5469	-58.230839
20188.4766	-58.220573
20191.4062	-58.207855
20194.3359	-58.191116
20197.2656	-58.172596
20200.1953	-58.156258
20203.1250	-58.137806
20206.0547	-58.117386
20208.9844	-58.098351
20211.9141	-58.081947
20214.8438	-58.069756
20217.7734	-58.068249
20220.7031	-58.073101
20223.6328	-58.092869
20226.5625	-58.136021
20229.4922	-58.199062
20232.4219	-58.269676
20235.3516	-58.336636
20238.2812	-58.390682
20241.2109	-58.432491
20244.1406	-58.470352
20247.0703	-58.508080
20250.0000	-58.549725
20252.9297	-58.599186
20255.8594	-58.652771
20258.7891	-58.710564
20261.7188	-58.775894
20264.6484	-58.843304
20267.5781	-58.914650
20270.5078	-58.990692
20273.4375	-59.064262
20276.3672	-59.132362
20279.2969	-59.196762
20282.2266	-59.259148
20285.1562	-59.314678
20288.0859	-59.357639
20291.0156	-59.386654
20293.9453	-59.400322
20296.8750	-59.400673
20299.8047	-59.394146
20302.7344	-59.386509
20305.6641	-59.384052
20308.5938	-59.384747
20311.5234	-59.387234
20314.4531	-59.394203
20317.3828	-59.400124
20320.3125	-59.402203
20323.2422	-59.403049
20326.1719	-59.403095
20329.1016	-59.403748
20332.0312	-59.404953
20334.9609	-59.405155
20337.8906	-59.404747
20340.8203	-59.401485
20343.7500	-59.396500
20346.6797	-59.391010
20349.6094	-59.384640
20352.5391	-59.380489
20355.4688	-59.375378
20358.3984	-59.368538
20361.3281	-59.363728
20364.2578	-59.362068
20367.1875	-59.361229
20370.1172	-59.357800
20373.0469	-59.356243
20375.9766	-59.354580
20378.9062	-59.350967
20381.8359	-59.348450
20384.7656	-59.346333
20387.6953	-59.343655
20390.6250	-59.339630
20393.5547	-59.333908
20396.4844	-59.327026
20399.4141	-59.316326
20402.3438	-59.304550
20405.2734	-59.291065
20408.2031	-59.278996
20411.1328	-59.267845
20414.0625	-59.253475
20416.9922	-59.238438
20419.9219	-59.228653
20422.8516	-59.219925
20425.7812	-59.207653
20428.7109	-59.197071
20431.6406	-59.188877
20434.5703	-59.180523
20437.5000	-59.172607
20440.4297	-59.162941
20443.3594	-59.152206
20446.2891	-59.143719
20449.2188	-59.135159
20452.1484	-59.123993
20455.0781	-59.113819
20458.0078	-59.107594
20460.9375	-59.102509
20463.8672	-59.096504
20466.7969	-59.089821
20469.7266	-59.083363
20472.6562	-59.076164
20475.5859	-59.068153
20478.5156	-59.060936
20481.4453	-59.055614
20484.3750	-59.051010
20487.3047	-59.044682
20490.2344	-59.038471
20493.1641	-59.033115
20496.0938	-59.028515
20499.0234	-59.024948
20501.9531	-59.020649
20504.8828	-59.014862
20507.8125	-59.008434
20510.7422	-59.003826
20513.6719	-59.003609
20516.6016	-59.004421
20519.5312	-59.001419
20522.4609	-58.999031
20525.3906	-58.998306
20528.3203	-58.996487
20531.2500	-58.995907
20534.1797	-58.993786
20537.1094	-58.989609
20540.0391	-58.985825
20542.9688	-58.983700
20545.8984	-58.982479
20548.8281	-58.981556
20551.7578	-58.983761
20554.6875	-58.984131
20557.6172	-58.979004
20560.5469	-58.976368
20563.4766	-58.977863
20566.4062	-58.978027
20569.3359	-58.969196
20572.2656	-58.958431
20575.1953	-58.949734
20578.1250	-58.940628
20581.0547	-58.930599
20583.9844	-58.919498
20586.9141	-58.908592
20589.8438	-58.899563
20592.7734	-58.892181
20595.7031	-58.886005
20598.6328	-58.878944
20601.5625	-58.872509
20604.4922	-58.864262
20607.4219	-58.856441
20610.3516	-58.850426
20613.2812	-58.840351
20616.2109	-58.832497
20619.1406	-58.827824
20622.0703	-58.821140
20625.0000	-58.812885
20627.9297	-58.804005
20630.8594	-58.798027
20633.7891	-58.795170
20636.7188	-58.789745
20639.6484	-58.782150
20642.5781	-58.777035
20645.5078	-58.772911
20648.4375	-58.767025
20651.3672	-58.760307
20654.2969	-58.754810
20657.2266	-58.752365
20660.1562	-58.748981
20663.0859	-58.745193
20666.0156	-58.743820
20668.9453	-58.740780
20671.8750	-58.736969
20674.8047	-58.732460
20677.7344	-58.728085
20680.6641	-58.725666
20683.5938	-58.721016
20686.5234	-58.717297
20689.4531	-58.718956
20692.3828	-58.720375
20695.3125	-58.717201
20698.2422	-58.710545
20701.1719	-58.704937
20704.1016	-58.700306
20707.0312	-58.694359
20709.9609	-58.685886
20712.8906	-58.678749
20715.8203	-58.673790
20718.7500	-58.668022
20721.6797	-58.663303
20724.6094	-58.657898
20727.5391	-58.651070
20730.4688	-58.646114
20733.3984	-58.641960
20736.3281	-58.638958
20739.2578	-58.637371
20742.1875	-58.633846
20745.1172	-58.628616
20748.0469	-58.624779
20750.9766	-58.619682
20753.9062	-58.612617
20756.8359	-58.609535
20759.7656	-58.609295
20762.6953	-58.607502
20765.6250	-58.604321
20768.5547	-58.601067
20771.4844	-58.599720
20774.4141	-58.599831
20777.3438	-58.597614
20780.2734	-58.594139
20783.2031	-58.592480
20786.1328	-58.591949
20789.0625	-58.592106
20791.9922	-58.591125
20794.9219	-58.588562
20797.8516	-58.587334
20800.7812	-58.586926
20803.7109	-58.585491
20806.6406	-58.584373
20809.5703	-58.585983
20812.5000	-58.590485
20815.4297	-58.592094
20818.3594	-58.590744
20821.2891	-58.591957
20824.2188	-58.592587
20827.1484	-58.588326
20830.0781	-58.579788
20833.0078	-58.569199
20835.9375	-58.562115
20838.8672	-58.554729
20841.7969	-58.544224
20844.7266	-58.534367
20847.6562	-58.525307
20850.5859	-58.517532
20853.5156	-58.509129
20856.4453	-58.503429
20859.3750	-58.500645
20862.3047	-58.494736
20865.2344	-58.487076
20868.1641	-58.481617
20871.0938	-58.476372
20874.0234	-58.468761
20876.9531	-58.461815
20879.8828	-58.457066
20882.8125	-58.453636
20885.7422	-58.448277
20888.6719	-58.439140
20891.6016	-58.431789
20894.5312	-58.429752
20897.4609	-58.426952
20900.3906	-58.420662
20903.3203	-58.417046
20906.2500	-58.416576
20909.1797	-58.415073
20912.1094	-58.411312
20915.0391	-58.405540
20917.9688	-58.399544
20920.8984	-58.394417
20923.8281	-58.390923
20926.7578	-58.389496
20929.6875	-58.388100
20932.6172	-58.384163
20935.5469	-58.379307
20938.4766	-58.377483
20941.4062	-58.377937
20944.3359	-58.376431
20947.2656	-58.373947
20950.1953	-58.372555
20953.1250	-58.367901
20956.0547	-58.362946
20958.9844	-58.362106
20961.9141	-58.358456
20964.8438	-58.351765
20967.7734	-58.346363
20970.7031	-58.340435
20973.6328	-58.333847
20976.5625	-58.329205
20979.4922	-58.325310
20982.4219	-58.319263
20985.3516	-58.313213
20988.2812	-58.310944
20991.2109	-58.311768
20994.1406	-58.310143
20997.0703	-58.303883
21000.0000	-58.297081
21002.9297	-58.291901
21005.8594	-58.286785
21008.7891	-58.284916
21011.7188	-58.284607
21014.6484	-58.280952
21017.5781	-58.277573
21020.5078	-58.275085
21023.4375	-58.273468
21026.3672	-58.273388
21029.2969	-58.271076
21032.2266	-58.267746
21035.1562	-58.266846
21038.0859	-58.267258
21041.0156	-58.266113
21043.9453	-58.263325
21046.8750	-58.262066
21049.8047	-58.261539
21052.7344	-58.262028
21055.6641	-58.264065
21058.5938	-58.264412
21061.5234	-58.264107
21064.4531	-58.264870
21067.3828	-58.265583
21070.3125	-58.265690
21073.2422	-58.267101
21076.1719	-58.267914
21079.1016	-58.267513
21082.0312	-58.268719
21084.9609	-58.266762
21087.8906	-58.259171
21090.8203	-58.250134
21093.7500	-58.238758
21096.6797	-58.226765
21099.6094	-58.219048
21102.5391	-58.213863
21105.4688	-58.207390
21108.3984	-58.201900
21111.3281	-58.193890
21114.2578	-58.183231
21117.1875	-58.177132
21120.1172	-58.173855
21123.0469	-58.170464
21125.9766	-58.164753
21128.9062	-58.155540
21131.8359	-58.149715
21134.7656	-58.147312
21137.6953	-58.140656
21140.6250	-58.133568
21143.5547	-58.130955
21146.4844	-58.127686
21149.4141	-58.122890
21152.3438	-58.119911
21155.2734	-58.117577
21158.2031	-58.113346
21161.1328	-58.106911
21164.0625	-58.100254
21166.9922	-58.097931
21169.9219	-58.098408
21172.8516	-58.096272
21175.7812	-58.091183
21178.7109	-58.085747
21181.6406	-58.082951
21184.5703	-58.080395
21187.5000	-58.076931
21190.4297	-58.075382
21193.3594	-58.072777
21196.2891	-58.069523
21199.2188	-58.069290
21202.1484	-58.068184
21205.0781	-58.065861
21208.0078	-58.066090
21210.9375	-58.066242
21213.8672	-58.065765
21216.7969	-58.065971
21219.7266	-58.066074
21222.6562	-58.066383
21225.5859	-58.064701
21228.5156	-58.063942
21231.4453	-58.065800
21234.3750	-58.066742
21237.3047	-58.066757
21240.2344	-58.068470
21243.1641	-58.071747
21246.0938	-58.071968
21249.0234	-58.072384
21251.9531	-58.077538
21254.8828	-58.081272
21257.8125	-58.070698
21260.7422	-58.060158
21263.6719	-58.054123
21266.6016	-58.045715
21269.5312	-58.036144
21272.4609	-58.028522
21275.3906	-58.021042
21278.3203	-58.013142
21281.2500	-58.003693
21284.1797	-57.996044
21287.1094	-57.992786
21290.0391	-57.988972
21292.9688	-57.982979
21295.8984	-57.975655
21298.8281	-57.968662
21301.7578	-57.964836
21304.6875	-57.960094
21307.6172	-57.952927
21310.5469	-57.947289
21313.4766	-57.942127
21316.4062	-57.936409
21319.3359	-57.931423
21322.2656	-57.928692
21325.1953	-57.926460
21328.1250	-57.921913
21331.0547	-57.916756
21333.9844	-57.911770
21336.9141	-57.906845
21339.8438	-57.903786
21342.7734	-57.900837
21345.7031	-57.898403
21348.6328	-57.895512
21351.5625	-57.888958
21354.4922	-57.883110
21357.4219	-57.881664
21360.3516	-57.882320
21363.2812	-57.881542
21366.2109	-57.879948
21369.1406	-57.877781
21372.0703	-57.876411
21375.0000	-57.877056
21377.9297	-57.877163
21380.8594	-57.876942
21383.7891	-57.874519
21386.7188	-57.867451
21389.6484	-57.861870
21392.5781	-57.857819
21395.5078	-57.852917
21398.4375	-57.847656
21401.3672	-57.842060
21404.2969	-57.838570
21407.2266	-57.836678
21410.1562	-57.830929
21413.0859	-57.823666
21416.0156	-57.819687
21418.9453	-57.817814
21421.8750	-57.816082
21424.8047	-57.813995
21427.7344	-57.809612
21430.6641	-57.803085
21433.5938	-57.798241
21436.5234	-57.796051
21439.4531	-57.794243
21442.3828	-57.791615
21445.3125	-57.789680
21448.2422	-57.788429
21451.1719	-57.784206
21454.1016	-57.777378
21457.0312	-57.776382
21459.9609	-57.780346
21462.8906	-57.781765
21465.8203	-57.780849
21468.7500	-57.778694
21471.6797	-57.777424
21474.6094	-57.778797
21477.5391	-57.780449
21480.4688	-57.779835
21483.3984	-57.779266
21486.3281	-57.779480
21489.2578	-57.778290
21492.1875	-57.777592
21495.1172	-57.778252
21498.0469	-57.779236
21500.9766	-57.779461
21503.9062	-57.780315
21506.8359	-57.783176
21509.7656	-57.786098
21512.6953	-57.789680
21515.6250	-57.785004
21518.5547	-57.774223
21521.4844	-57.762825
21524.4141	-57.755142
21527.3438	-57.749832
21530.2734	-57.743217
21533.2031	-57.735477
21536.1328	-57.729027
21539.0625	-57.721939
21541.9922	-57.714565
21544.9219	-57.708241
21547.8516	-57.703869
21550.7812	-57.699959
21553.7109	-57.692554
21556.6406	-57.683537
21559.5703	-57.678837
21562.5000	-57.676163
21565.4297	-57.670952
21568.3594	-57.665550
21571.2891	-57.660988
21574.2188	-57.655464
21577.1484	-57.650990
21580.0781	-57.647419
21583.0078	-57.642727
21585.9375	-57.638432
21588.8672	-57.634247
21591.7969	-57.631424
21594.7266	-57.628426
21597.6562	-57.624374
21600.5859	-57.622261
21603.5156	-57.618603
21606.4453	-57.614651
21609.3750	-57.613216
21612.3047	-57.610298
21615.2344	-57.605434
21618.1641	-57.602768
21621.0938	-57.603794
21624.0234	-57.603191
21626.9531	-57.598690
21629.8828	-57.595318
21632.8125	-57.597351
21635.7422	-57.599827
21638.6719	-57.597748
21641.6016	-57.595066
21644.5312	-57.589687
21647.4609	-57.583328
21650.3906	-57.579433
21653.3203	-57.579899
21656.2500	-57.576595
21659.1797	-57.569111
21662.1094	-57.565372
21665.0391	-57.562321
21667.9688	-57.555614
21670.8984	-57.548946
21673.8281	-57.545563
21676.7578	-57.543049
21679.6875	-57.539555
21682.6172	-57.534897
21685.5469	-57.531277
21688.4766	-57.530094
21691.4062	-57.527424
21694.3359	-57.524178
21697.2656	-57.521564
21700.1953	-57.518044
21703.1250	-57.514408
21706.0547	-57.510857
21708.9844	-57.509666
21711.9141	-57.510757
21714.8438	-57.510098
21717.7734	-57.508018
21720.7031	-57.506344
21723.6328	-57.505939
21726.5625	-57.506824
21729.4922	-57.507507
21732.4219	-57.506424
21735.3516	-57.503887
21738.2812	-57.502426
21741.2109	-57.502987
21744.1406	-57.504467
21747.0703	-57.506031
21750.0000	-57.508415
21752.9297	-57.506496
21755.8594	-57.504452
21758.7891	-57.509403
21761.7188	-57.513023
21764.6484	-57.512951
21767.5781	-57.513100
21770.5078	-57.515476
21773.4375	-57.512135
21776.3672	-57.505386
21779.2969	-57.499763
21782.2266	-57.492809
21785.1562	-57.483112
21788.0859	-57.475147
21791.0156	-57.467167
21793.9453	-57.456902
21796.8750	-57.449509
21799.8047	-57.443932
21802.7344	-57.439087
21805.6641	-57.434589
21808.5938	-57.427120
21811.5234	-57.421619
21814.4531	-57.419197
21817.3828	-57.414917
21820.3125	-57.408871
21823.2422	-57.403187
21826.1719	-57.397568
21829.1016	-57.391975
21832.0312	-57.388424
21834.9609	-57.386051
21837.8906	-57.381157
21840.8203	-57.375893
21843.7500	-57.372265
21846.6797	-57.367802
21849.6094	-57.363518
21852.5391	-57.365448
21855.4688	-57.369259
21858.3984	-57.364445
21861.3281	-57.355621
21864.2578	-57.350109
21867.1875	-57.348637
21870.1172	-57.349045
21873.0469	-57.347549
21875.9766	-57.343899
21878.9062	-57.340157
21881.8359	-57.337936
21884.7656	-57.337238
21887.6953	-57.336082
21890.6250	-57.335083
21893.5547	-57.335217
21896.4844	-57.333996
21899.4141	-57.333084
21902.3438	-57.333012
21905.2734	-57.332344
21908.2031	-57.332947
21911.1328	-57.333199
21914.0625	-57.333221
21916.9922	-57.334297
21919.9219	-57.335358
21922.8516	-57.337048
21925.7812	-57.338936
21928.7109	-57.339298
21931.6406	-57.337914
21934.5703	-57.337856
21937.5000	-57.341427
21940.4297	-57.344376
21943.3594	-57.346294
21946.2891	-57.340748
21949.2188	-57.335384
21952.1484	-57.328484
21955.0781	-57.321434
21958.0078	-57.312408
21960.9375	-57.302284
21963.8672	-57.292747
21966.7969	-57.286724
21969.7266	-57.282669
21972.6562	-57.275536
21975.5859	-57.267124
21978.5156	-57.261467
21981.4453	-57.258003
21984.3750	-57.254230
21987.3047	-57.247749
21990.2344	-57.241497
21993.1641	-57.238853
21996.0938	-57.234840
21999.0234	-57.228359
