;Freq(Hz)	Relative Amplitude (dB): Left
18972.6562	-57.665409
18975.5859	-57.664482
18978.5156	-57.662388
18981.4453	-57.659245
18984.3750	-57.656857
18987.3047	-57.655186
18990.2344	-57.654350
18993.1641	-57.653858
18996.0938	-57.654835
18999.0234	-57.657005
19001.9531	-57.655186
19004.8828	-57.650513
19007.8125	-57.648338
19010.7422	-57.648678
19013.6719	-57.648113
19016.6016	-57.648697
19019.5312	-57.648331
19022.4609	-57.635101
19025.3906	-57.620861
19028.3203	-57.609276
19031.2500	-57.599499
19034.1797	-57.589897
19037.1094	-57.580097
19040.0391	-57.567860
19042.9688	-57.556011
19045.8984	-57.546310
19048.8281	-57.539566
19051.7578	-57.533127
19054.6875	-57.523010
19057.6172	-57.513443
19060.5469	-57.504780
19063.4766	-57.493736
19066.4062	-57.483734
19069.3359	-57.475960
19072.2656	-57.466030
19075.1953	-57.456211
19078.1250	-57.449074
19081.0547	-57.442474
19083.9844	-57.433525
19086.9141	-57.423603
19089.8438	-57.415527
19092.7734	-57.408409
19095.7031	-57.403511
19098.6328	-57.399536
19101.5625	-57.394035
19104.4922	-57.387424
19107.4219	-57.379154
19110.3516	-57.372154
19113.2812	-57.368252
19116.2109	-57.364700
19119.1406	-57.360210
19122.0703	-57.354343
19125.0000	-57.348637
19127.9297	-57.345787
19130.8594	-57.343624
19133.7891	-57.339455
19136.7188	-57.335075
19139.6484	-57.332577
19142.5781	-57.331944
19145.5078	-57.332073
19148.4375	-57.330021
19151.3672	-57.320103
19154.2969	-57.311615
19157.2266	-57.306305
19160.1562	-57.301678
19163.0859	-57.296455
19166.0156	-57.292286
19168.9453	-57.287796
19171.8750	-57.280869
19174.8047	-57.273911
19177.7344	-57.269936
19180.6641	-57.266705
19183.5938	-57.262665
19186.5234	-57.258049
19189.4531	-57.251488
19192.3828	-57.246883
19195.3125	-57.245419
19198.2422	-57.240318
19201.1719	-57.233955
19204.1016	-57.231995
19207.0312	-57.230392
19209.9609	-57.227444
19212.8906	-57.225227
19215.8203	-57.223812
19218.7500	-57.220814
19221.6797	-57.215244
19224.6094	-57.210365
19227.5391	-57.208485
19230.4688	-57.207771
19233.3984	-57.204342
19236.3281	-57.199734
19239.2578	-57.196758
19242.1875	-57.194592
19245.1172	-57.191956
19248.0469	-57.187729
19250.9766	-57.184998
19253.9062	-57.184036
19256.8359	-57.179646
19259.7656	-57.173332
19262.6953	-57.170509
19265.6250	-57.170059
19268.5547	-57.169403
19271.4844	-57.167011
19274.4141	-57.163506
19277.3438	-57.159126
19280.2734	-57.147083
19283.2031	-57.135582
19286.1328	-57.123169
19289.0625	-57.111298
19291.9922	-57.100010
19294.9219	-57.088142
19297.8516	-57.074055
19300.7812	-57.058281
19303.7109	-57.048779
19306.6406	-57.043301
19309.5703	-57.035557
19312.5000	-57.026871
19315.4297	-57.016018
19318.3594	-57.002769
19321.2891	-56.991356
19324.2188	-56.980427
19327.1484	-56.969425
19330.0781	-56.960186
19333.0078	-56.951229
19335.9375	-56.942581
19338.8672	-56.934055
19341.7969	-56.927185
19344.7266	-56.920715
19347.6562	-56.911728
19350.5859	-56.902424
19353.5156	-56.893990
19356.4453	-56.887917
19359.3750	-56.882912
19362.3047	-56.875465
19365.2344	-56.867783
19368.1641	-56.862209
19371.0938	-56.855026
19374.0234	-56.846985
19376.9531	-56.842018
19379.8828	-56.837612
19382.8125	-56.832043
19385.7422	-56.825165
19388.6719	-56.818790
19391.6016	-56.813622
19394.5312	-56.809181
19397.4609	-56.804268
19400.3906	-56.796879
19403.3203	-56.791306
19406.2500	-56.786896
19409.1797	-56.779850
19412.1094	-56.773830
19415.0391	-56.770782
19417.9688	-56.767532
19420.8984	-56.762218
19423.8281	-56.756313
19426.7578	-56.751873
19429.6875	-56.747341
19432.6172	-56.742622
19435.5469	-56.738605
19438.4766	-56.734318
19441.4062	-56.729328
19444.3359	-56.722603
19447.2656	-56.716095
19450.1953	-56.707401
19453.1250	-56.689064
19456.0547	-56.673004
19458.9844	-56.659782
19461.9141	-56.645126
19464.8438	-56.629982
19467.7734	-56.613800
19470.7031	-56.597626
19473.6328	-56.583843
19476.5625	-56.569595
19479.4922	-56.553398
19482.4219	-56.538395
19485.3516	-56.524334
19488.2812	-56.509617
19491.2109	-56.495186
19494.1406	-56.479267
19497.0703	-56.464054
19500.0000	-56.452187
19502.9297	-56.437328
19505.8594	-56.419827
19508.7891	-56.405117
19511.7188	-56.391094
19514.6484	-56.376705
19517.5781	-56.361641
19520.5078	-56.345531
19523.4375	-56.330864
19526.3672	-56.315334
19529.2969	-56.297184
19532.2266	-56.281689
19535.1562	-56.267784
19538.0859	-56.250645
19541.0156	-56.233078
19543.9453	-56.216644
19546.8750	-56.199482
19549.8047	-56.181358
19552.7344	-56.161526
19555.6641	-56.141308
19558.5938	-56.121693
19561.5234	-56.101147
19564.4531	-56.081837
19567.3828	-56.062771
19570.3125	-56.040134
19573.2422	-56.014732
19576.1719	-55.988808
19579.1016	-55.961163
19582.0312	-55.929356
19584.9609	-55.896645
19587.8906	-55.862953
19590.8203	-55.827824
19593.7500	-55.789661
19596.6797	-55.749310
19599.6094	-55.708076
19602.5391	-55.670815
19605.4688	-55.636860
19608.3984	-55.600182
19611.3281	-55.562145
19614.2578	-55.525299
19617.1875	-55.489929
19620.1172	-55.454796
19623.0469	-55.420235
19625.9766	-55.386578
19628.9062	-55.353855
19631.8359	-55.322800
19634.7656	-55.293171
19637.6953	-55.264339
19640.6250	-55.235905
19643.5547	-55.209080
19646.4844	-55.182941
19649.4141	-55.158409
19652.3438	-55.134293
19655.2734	-55.108486
19658.2031	-55.085018
19661.1328	-55.063480
19664.0625	-55.041161
19666.9922	-55.018776
19669.9219	-54.998028
19672.8516	-54.980663
19675.7812	-54.965759
19678.7109	-54.951962
19681.6406	-54.940590
19684.5703	-54.933060
19687.5000	-54.929993
19690.4297	-54.933243
19693.3594	-54.945312
19696.2891	-54.968895
19699.2188	-55.004871
19702.1484	-55.048164
19705.0781	-55.093559
19708.0078	-55.150833
19710.9375	-55.220356
19713.8672	-55.302216
19716.7969	-55.397079
19719.7266	-55.502750
19722.6562	-55.617237
19725.5859	-55.740307
19728.5156	-55.869297
19731.4453	-56.003803
19734.3750	-56.144455
19737.3047	-56.287991
19740.2344	-56.429546
19743.1641	-56.566044
19746.0938	-56.698029
19749.0234	-56.825287
19751.9531	-56.944874
19754.8828	-57.053619
19757.8125	-57.154610
19760.7422	-57.248680
19763.6719	-57.330772
19766.6016	-57.404354
19769.5312	-57.470268
19772.4609	-57.524921
19775.3906	-57.569946
19778.3203	-57.608532
19781.2500	-57.641899
19784.1797	-57.669544
19787.1094	-57.691959
19790.0391	-57.709641
19792.9688	-57.723225
19795.8984	-57.731838
19798.8281	-57.738106
19801.7578	-57.743393
19804.6875	-57.744247
19807.6172	-57.742092
19810.5469	-57.736736
19813.4766	-57.727859
19816.4062	-57.720787
19819.3359	-57.715836
19822.2656	-57.709499
19825.1953	-57.701626
19828.1250	-57.692806
19831.0547	-57.683540
19833.9844	-57.673180
19836.9141	-57.662003
19839.8438	-57.648830
19842.7734	-57.633991
19845.7031	-57.619251
19848.6328	-57.603394
19851.5625	-57.587681
19854.4922	-57.575108
19857.4219	-57.561714
19860.3516	-57.545330
19863.2812	-57.530834
19866.2109	-57.517902
19869.1406	-57.503643
19872.0703	-57.489700
19875.0000	-57.475250
19877.9297	-57.460758
19880.8594	-57.448124
19883.7891	-57.436592
19886.7188	-57.424122
19889.6484	-57.410767
19892.5781	-57.398834
19895.5078	-57.388287
19898.4375	-57.379608
19901.3672	-57.370300
19904.2969	-57.358631
19907.2266	-57.348228
19910.1562	-57.339077
19913.0859	-57.329056
19916.0156	-57.318787
19918.9453	-57.311234
19921.8750	-57.302036
19924.8047	-57.290588
19927.7344	-57.284332
19930.6641	-57.279362
19933.5938	-57.272438
19936.5234	-57.265110
19939.4531	-57.258163
19942.3828	-57.250729
19945.3125	-57.243877
19948.2422	-57.241241
19951.1719	-57.240021
19954.1016	-57.236755
19957.0312	-57.229637
19959.9609	-57.222279
19962.8906	-57.218689
19965.8203	-57.213066
19968.7500	-57.196617
19971.6797	-57.182358
19974.6094	-57.166985
19977.5391	-57.152996
19980.4688	-57.140537
19983.3984	-57.129028
19986.3281	-57.116844
19989.2578	-57.104504
19992.1875	-57.095726
19995.1172	-57.085308
19998.0469	-57.075615
20000.9766	-57.069778
20003.9062	-57.059639
20006.8359	-57.047138
20009.7656	-57.035629
20012.6953	-57.023026
20015.6250	-57.011497
20018.5547	-57.002403
20021.4844	-56.994274
20024.4141	-56.986519
20027.3438	-56.978470
20030.2734	-56.969227
20033.2031	-56.960209
20036.1328	-56.952709
20039.0625	-56.944839
20041.9922	-56.937061
20044.9219	-56.930183
20047.8516	-56.922909
20050.7812	-56.915577
20053.7109	-56.907177
20056.6406	-56.899490
20059.5703	-56.893890
20062.5000	-56.888771
20065.4297	-56.884644
20068.3594	-56.880169
20071.2891	-56.873646
20074.2188	-56.866932
20077.1484	-56.861115
20080.0781	-56.856544
20083.0078	-56.852451
20085.9375	-56.849094
20088.8672	-56.846710
20091.7969	-56.841618
20094.7266	-56.837868
20097.6562	-56.832561
20100.5859	-56.824387
20103.5156	-56.813850
20106.4453	-56.804657
20109.3750	-56.796558
20112.3047	-56.791389
20115.2344	-56.787441
20118.1641	-56.779324
20121.0938	-56.770733
20124.0234	-56.764103
20126.9531	-56.757069
20129.8828	-56.749908
20132.8125	-56.744843
20135.7422	-56.741718
20138.6719	-56.736622
20141.6016	-56.730099
20144.5312	-56.724556
20147.4609	-56.719582
20150.3906	-56.713730
20153.3203	-56.707165
20156.2500	-56.702946
20159.1797	-56.701012
20162.1094	-56.698200
20165.0391	-56.693680
20167.9688	-56.688232
20170.8984	-56.683796
20173.8281	-56.683228
20176.7578	-56.684605
20179.6875	-56.681812
20182.6172	-56.676346
20185.5469	-56.674835
20188.4766	-56.675598
20191.4062	-56.674103
20194.3359	-56.672241
20197.2656	-56.668087
20200.1953	-56.663063
20203.1250	-56.663242
20206.0547	-56.665207
20208.9844	-56.666096
20211.9141	-56.666462
20214.8438	-56.666565
20217.7734	-56.666119
20220.7031	-56.665627
20223.6328	-56.664448
20226.5625	-56.651379
20229.4922	-56.640335
20232.4219	-56.632351
20235.3516	-56.624172
20238.2812	-56.615181
20241.2109	-56.606167
20244.1406	-56.597576
20247.0703	-56.589767
20250.0000	-56.580975
20252.9297	-56.573692
20255.8594	-56.567532
20258.7891	-56.559986
20261.7188	-56.552990
20264.6484	-56.546112
20267.5781	-56.539444
20270.5078	-56.532944
20273.4375	-56.525887
20276.3672	-56.520470
20279.2969	-56.516376
20282.2266	-56.510983
20285.1562	-56.504494
20288.0859	-56.496933
20291.0156	-56.489410
20293.9453	-56.484100
20296.8750	-56.481926
20299.8047	-56.478695
20302.7344	-56.471832
20305.6641	-56.465462
20308.5938	-56.461655
20311.5234	-56.458431
20314.4531	-56.454037
20317.3828	-56.449242
20320.3125	-56.443596
20323.2422	-56.438431
20326.1719	-56.434658
20329.1016	-56.431351
20332.0312	-56.430462
20334.9609	-56.430702
20337.8906	-56.428230
20340.8203	-56.423634
20343.7500	-56.420109
20346.6797	-56.418343
20349.6094	-56.418129
20352.5391	-56.417309
20355.4688	-56.414246
20358.3984	-56.412052
20361.3281	-56.410423
20364.2578	-56.409077
20367.1875	-56.409763
20370.1172	-56.410271
20373.0469	-56.410110
20375.9766	-56.408600
20378.9062	-56.405529
20381.8359	-56.404209
20384.7656	-56.404594
20387.6953	-56.405567
20390.6250	-56.407204
20393.5547	-56.407959
20396.4844	-56.404629
20399.4141	-56.395962
20402.3438	-56.387424
20405.2734	-56.376831
20408.2031	-56.368073
20411.1328	-56.359741
20414.0625	-56.349377
20416.9922	-56.341534
20419.9219	-56.335159
20422.8516	-56.328781
20425.7812	-56.322613
20428.7109	-56.314518
20431.6406	-56.306599
20434.5703	-56.300827
20437.5000	-56.294266
20440.4297	-56.287247
20443.3594	-56.280289
20446.2891	-56.271709
20449.2188	-56.266125
20452.1484	-56.263279
20455.0781	-56.258137
20458.0078	-56.252682
20460.9375	-56.247074
20463.8672	-56.240704
20466.7969	-56.235538
20469.7266	-56.230625
20472.6562	-56.226513
20475.5859	-56.222614
20478.5156	-56.217793
20481.4453	-56.213531
20484.3750	-56.209053
20487.3047	-56.205723
20490.2344	-56.203186
20493.1641	-56.198589
20496.0938	-56.194389
20499.0234	-56.193890
20501.9531	-56.191727
20504.8828	-56.185684
20507.8125	-56.182571
20510.7422	-56.181381
20513.6719	-56.179825
20516.6016	-56.178989
20519.5312	-56.177887
20522.4609	-56.176311
20525.3906	-56.172218
20528.3203	-56.166458
20531.2500	-56.161457
20534.1797	-56.154705
20537.1094	-56.147144
20540.0391	-56.141006
20542.9688	-56.136826
20545.8984	-56.132835
20548.8281	-56.128136
20551.7578	-56.123081
20554.6875	-56.119202
20557.6172	-56.115360
20560.5469	-56.111168
20563.4766	-56.109173
20566.4062	-56.108253
20569.3359	-56.105289
20572.2656	-56.098618
20575.1953	-56.091610
20578.1250	-56.089062
20581.0547	-56.087708
20583.9844	-56.085205
20586.9141	-56.082863
20589.8438	-56.079254
20592.7734	-56.076061
20595.7031	-56.074299
20598.6328	-56.073696
20601.5625	-56.073120
20604.4922	-56.070484
20607.4219	-56.068928
20610.3516	-56.067375
20613.2812	-56.064991
20616.2109	-56.065567
20619.1406	-56.066368
20622.0703	-56.063980
20625.0000	-56.060482
20627.9297	-56.061050
20630.8594	-56.063660
20633.7891	-56.063141
20636.7188	-56.061100
20639.6484	-56.061398
20642.5781	-56.062851
20645.5078	-56.063740
20648.4375	-56.063004
20651.3672	-56.061062
20654.2969	-56.060356
20657.2266	-56.054371
20660.1562	-56.044830
20663.0859	-56.035004
20666.0156	-56.026398
20668.9453	-56.018955
20671.8750	-56.011486
20674.8047	-56.002411
20677.7344	-55.994198
20680.6641	-55.987049
20683.5938	-55.979618
20686.5234	-55.973099
20689.4531	-55.967365
20692.3828	-55.962910
20695.3125	-55.959030
20698.2422	-55.951057
20701.1719	-55.941936
20704.1016	-55.937851
20707.0312	-55.934643
20709.9609	-55.927731
20712.8906	-55.920326
20715.8203	-55.915226
20718.7500	-55.910667
20721.6797	-55.906025
20724.6094	-55.901897
20727.5391	-55.897469
20730.4688	-55.894188
20733.3984	-55.891220
20736.3281	-55.886940
20739.2578	-55.881992
20742.1875	-55.876282
20745.1172	-55.872395
20748.0469	-55.870567
20750.9766	-55.867687
20753.9062	-55.863430
20756.8359	-55.858608
20759.7656	-55.854343
20762.6953	-55.853745
20765.6250	-55.853546
20768.5547	-55.850899
20771.4844	-55.849262
20774.4141	-55.848705
20777.3438	-55.848122
20780.2734	-55.845894
20783.2031	-55.842487
20786.1328	-55.841541
20789.0625	-55.842510
20791.9922	-55.843235
20794.9219	-55.842239
20797.8516	-55.840858
20800.7812	-55.842690
20803.7109	-55.843884
20806.6406	-55.843536
20809.5703	-55.844498
20812.5000	-55.844124
20815.4297	-55.843708
20818.3594	-55.846016
20821.2891	-55.849041
20824.2188	-55.850166
20827.1484	-55.844009
20830.0781	-55.833469
20833.0078	-55.824047
20835.9375	-55.815334
20838.8672	-55.807629
20841.7969	-55.800133
20844.7266	-55.791672
20847.6562	-55.782871
20850.5859	-55.778194
20853.5156	-55.774643
20856.4453	-55.767536
20859.3750	-55.760204
20862.3047	-55.754986
20865.2344	-55.749443
20868.1641	-55.741459
20871.0938	-55.734455
20874.0234	-55.728748
20876.9531	-55.721859
20879.8828	-55.716595
20882.8125	-55.713039
20885.7422	-55.708195
20888.6719	-55.702015
20891.6016	-55.696499
20894.5312	-55.693642
20897.4609	-55.690426
20900.3906	-55.685299
20903.3203	-55.682644
20906.2500	-55.679451
20909.1797	-55.674152
20912.1094	-55.670986
20915.0391	-55.667385
20917.9688	-55.662254
20920.8984	-55.657745
20923.8281	-55.654724
20926.7578	-55.653439
20929.6875	-55.650459
20932.6172	-55.647221
20935.5469	-55.646866
20938.4766	-55.646439
20941.4062	-55.643589
20944.3359	-55.640469
20947.2656	-55.639744
20950.1953	-55.637638
20953.1250	-55.635406
20956.0547	-55.634117
20958.9844	-55.628986
20961.9141	-55.621769
20964.8438	-55.616920
20967.7734	-55.613388
20970.7031	-55.609100
20973.6328	-55.604504
20976.5625	-55.599873
20979.4922	-55.594212
20982.4219	-55.589771
20985.3516	-55.586761
20988.2812	-55.581985
20991.2109	-55.577053
20994.1406	-55.574524
20997.0703	-55.572685
21000.0000	-55.568111
21002.9297	-55.562317
21005.8594	-55.559456
21008.7891	-55.556725
21011.7188	-55.552101
21014.6484	-55.549751
21017.5781	-55.548828
21020.5078	-55.545227
21023.4375	-55.541576
21026.3672	-55.541553
21029.2969	-55.541489
21032.2266	-55.540470
21035.1562	-55.540524
21038.0859	-55.540611
21041.0156	-55.540195
21043.9453	-55.539867
21046.8750	-55.538231
21049.8047	-55.536846
21052.7344	-55.537983
21055.6641	-55.537865
21058.5938	-55.537048
21061.5234	-55.537128
21064.4531	-55.537762
21067.3828	-55.539146
21070.3125	-55.540024
21073.2422	-55.542107
21076.1719	-55.544914
21079.1016	-55.545570
21082.0312	-55.545654
21084.9609	-55.540943
21087.8906	-55.531956
21090.8203	-55.522518
21093.7500	-55.514248
21096.6797	-55.505939
21099.6094	-55.499393
21102.5391	-55.493530
21105.4688	-55.486370
21108.3984	-55.480259
21111.3281	-55.474220
21114.2578	-55.467869
21117.1875	-55.462456
21120.1172	-55.455967
21123.0469	-55.450298
21125.9766	-55.445728
21128.9062	-55.439011
21131.8359	-55.431934
21134.7656	-55.425488
21137.6953	-55.419655
21140.6250	-55.415417
21143.5547	-55.411312
21146.4844	-55.405407
21149.4141	-55.399490
21152.3438	-55.395824
21155.2734	-55.393490
21158.2031	-55.390465
21161.1328	-55.386833
21164.0625	-55.383972
21166.9922	-55.379425
21169.9219	-55.372971
21172.8516	-55.368614
21175.7812	-55.365852
21178.7109	-55.363506
21181.6406	-55.360691
21184.5703	-55.357517
21187.5000	-55.354404
21190.4297	-55.351406
21193.3594	-55.350529
21196.2891	-55.350811
21199.2188	-55.349926
21202.1484	-55.348614
21205.0781	-55.348328
21208.0078	-55.347527
21210.9375	-55.346375
21213.8672	-55.342514
21216.7969	-55.336491
21219.7266	-55.331398
21222.6562	-55.326149
21225.5859	-55.322392
21228.5156	-55.317524
21231.4453	-55.311138
21234.3750	-55.306618
21237.3047	-55.302639
21240.2344	-55.298191
21243.1641	-55.294628
21246.0938	-55.292778
21249.0234	-55.291649
21251.9531	-55.287827
21254.8828	-55.279697
21257.8125	-55.272701
21260.7422	-55.270359
21263.6719	-55.269230
21266.6016	-55.267570
21269.5312	-55.265263
21272.4609	-55.262959
21275.3906	-55.260998
21278.3203	-55.259411
21281.2500	-55.259670
21284.1797	-55.259174
21287.1094	-55.255779
21290.0391	-55.254345
21292.9688	-55.257072
21295.8984	-55.259777
21298.8281	-55.259354
21301.7578	-55.258217
21304.6875	-55.258633
21307.6172	-55.259232
21310.5469	-55.259052
21313.4766	-55.258762
21316.4062	-55.258270
21319.3359	-55.257133
21322.2656	-55.256199
21325.1953	-55.257694
21328.1250	-55.260742
21331.0547	-55.261364
21333.9844	-55.262424
21336.9141	-55.264038
21339.8438	-55.263668
21342.7734	-55.259377
21345.7031	-55.252003
21348.6328	-55.244953
21351.5625	-55.235992
21354.4922	-55.226551
21357.4219	-55.217812
21360.3516	-55.210510
21363.2812	-55.204987
21366.2109	-55.199566
21369.1406	-55.193840
21372.0703	-55.187645
21375.0000	-55.180981
21377.9297	-55.173912
21380.8594	-55.168236
21383.7891	-55.163025
21386.7188	-55.156048
21389.6484	-55.148647
21392.5781	-55.143772
21395.5078	-55.141556
21398.4375	-55.137383
21401.3672	-55.130589
21404.2969	-55.123798
21407.2266	-55.117680
21410.1562	-55.112614
21413.0859	-55.110622
21416.0156	-55.110279
21418.9453	-55.107643
21421.8750	-55.103527
21424.8047	-55.098766
21427.7344	-55.094521
21430.6641	-55.091770
21433.5938	-55.088951
21436.5234	-55.085175
21439.4531	-55.081123
21442.3828	-55.077881
21445.3125	-55.075615
21448.2422	-55.073391
21451.1719	-55.071056
21454.1016	-55.069923
21457.0312	-55.068615
21459.9609	-55.067020
21462.8906	-55.066742
21465.8203	-55.067066
21468.7500	-55.067104
21471.6797	-55.065811
21474.6094	-55.064247
21477.5391	-55.065884
21480.4688	-55.067745
21483.3984	-55.066460
21486.3281	-55.065590
21489.2578	-55.066803
21492.1875	-55.069176
21495.1172	-55.070187
21498.0469	-55.069706
21500.9766	-55.070892
21503.9062	-55.072510
21506.8359	-55.073044
21509.7656	-55.075329
21512.6953	-55.077641
21515.6250	-55.069481
21518.5547	-55.059399
21521.4844	-55.051437
21524.4141	-55.044922
21527.3438	-55.037682
21530.2734	-55.030422
21533.2031	-55.024158
21536.1328	-55.017376
21539.0625	-55.010418
21541.9922	-55.002922
21544.9219	-54.996128
21547.8516	-54.992863
21550.7812	-54.989010
21553.7109	-54.981289
21556.6406	-54.975639
21559.5703	-54.970757
21562.5000	-54.964870
21565.4297	-54.959991
21568.3594	-54.955643
21571.2891	-54.951992
21574.2188	-54.947666
21577.1484	-54.943066
21580.0781	-54.938801
21583.0078	-54.935108
21585.9375	-54.932377
21588.8672	-54.928654
21591.7969	-54.923115
21594.7266	-54.917362
21597.6562	-54.914314
21600.5859	-54.912773
21603.5156	-54.909866
21606.4453	-54.905411
21609.3750	-54.901169
21612.3047	-54.899830
21615.2344	-54.899429
21618.1641	-54.898636
21621.0938	-54.897579
21624.0234	-54.895592
21626.9531	-54.894199
21629.8828	-54.892849
21632.8125	-54.890121
21635.7422	-54.887707
21638.6719	-54.888325
21641.6016	-54.890228
21644.5312	-54.887325
21647.4609	-54.882793
21650.3906	-54.875599
21653.3203	-54.869003
21656.2500	-54.864368
21659.1797	-54.860226
21662.1094	-54.856071
21665.0391	-54.850906
21667.9688	-54.847885
21670.8984	-54.846333
21673.8281	-54.842136
21676.7578	-54.837631
21679.6875	-54.834076
21682.6172	-54.829918
21685.5469	-54.825619
21688.4766	-54.822620
21691.4062	-54.820816
21694.3359	-54.818436
21697.2656	-54.815926
21700.1953	-54.814102
21703.1250	-54.812160
21706.0547	-54.809628
21708.9844	-54.807644
21711.9141	-54.807129
21714.8438	-54.806545
21717.7734	-54.805447
21720.7031	-54.804913
21723.6328	-54.804356
21726.5625	-54.804596
21729.4922	-54.805843
21732.4219	-54.804607
21735.3516	-54.803211
21738.2812	-54.805656
21741.2109	-54.806908
21744.1406	-54.805412
21747.0703	-54.805256
21750.0000	-54.806087
21752.9297	-54.808006
21755.8594	-54.810085
21758.7891	-54.811897
21761.7188	-54.812618
21764.6484	-54.812721
21767.5781	-54.815220
21770.5078	-54.818356
21773.4375	-54.812275
21776.3672	-54.803810
21779.2969	-54.795822
21782.2266	-54.787701
21785.1562	-54.779823
21788.0859	-54.771404
21791.0156	-54.764473
21793.9453	-54.759846
21796.8750	-54.754322
21799.8047	-54.747543
21802.7344	-54.741722
21805.6641	-54.738098
21808.5938	-54.733021
21811.5234	-54.726719
21814.4531	-54.721428
21817.3828	-54.714451
21820.3125	-54.705780
21823.2422	-54.700493
21826.1719	-54.699242
21829.1016	-54.695545
21832.0312	-54.689461
21834.9609	-54.684971
21837.8906	-54.681099
21840.8203	-54.676338
21843.7500	-54.672592
21846.6797	-54.670349
21849.6094	-54.665550
21852.5391	-54.661041
21855.4688	-54.659389
21858.3984	-54.655216
21861.3281	-54.650761
21864.2578	-54.650124
21867.1875	-54.649391
21870.1172	-54.646030
21873.0469	-54.643600
21875.9766	-54.642715
21878.9062	-54.639542
21881.8359	-54.638000
21884.7656	-54.638889
21887.6953	-54.637424
21890.6250	-54.637142
21893.5547	-54.638039
21896.4844	-54.636929
21899.4141	-54.635246
21902.3438	-54.630352
21905.2734	-54.624447
21908.2031	-54.621014
21911.1328	-54.617195
21914.0625	-54.612385
21916.9922	-54.608185
21919.9219	-54.603634
21922.8516	-54.598335
21925.7812	-54.594269
21928.7109	-54.592041
21931.6406	-54.590015
21934.5703	-54.587639
21937.5000	-54.583427
21940.4297	-54.578136
21943.3594	-54.575703
21946.2891	-54.574947
21949.2188	-54.572624
21952.1484	-54.568626
21955.0781	-54.564510
21958.0078	-54.561306
21960.9375	-54.558857
21963.8672	-54.557213
21966.7969	-54.557091
21969.7266	-54.558002
21972.6562	-54.557163
21975.5859	-54.555210
21978.5156	-54.554398
21981.4453	-54.553677
21984.3750	-54.553478
21987.3047	-54.553177
21990.2344	-54.551846
21993.1641	-54.552128
21996.0938	-54.554104
21999.0234	-54.555950
22001.9531	-54.556847
22004.8828	-54.556633
22007.8125	-54.555790
22010.7422	-54.555626
22013.6719	-54.557671
22016.6016	-54.561104
22019.5312	-54.563057
22022.4609	-54.564335
22025.3906	-54.566051
22028.3203	-54.566639
22031.2500	-54.561783
