;Freq(Hz)	Relative Amplitude (dB): Left
18339.8438	-94.660400
18342.7734	-94.663979
18345.7031	-94.603485
18348.6328	-94.540413
18351.5625	-94.526199
18354.4922	-94.499405
18357.4219	-94.489441
18360.3516	-94.481789
18363.2812	-94.430183
18366.2109	-94.373100
18369.1406	-94.372299
18372.0703	-94.357208
18375.0000	-94.270348
18377.9297	-94.207207
18380.8594	-94.199059
18383.7891	-94.160515
18386.7188	-94.092796
18389.6484	-94.075081
18392.5781	-94.066666
18395.5078	-94.035973
18398.4375	-93.985901
18401.3672	-93.946976
18404.2969	-93.928017
18407.2266	-93.872704
18410.1562	-93.841209
18413.0859	-93.852364
18416.0156	-93.828896
18418.9453	-93.818581
18421.8750	-93.797455
18424.8047	-93.738655
18427.7344	-93.724518
18430.6641	-93.716995
18433.5938	-93.709526
18436.5234	-93.723755
18439.4531	-93.715622
18442.3828	-93.683617
18445.3125	-93.641495
18448.2422	-93.590904
18451.1719	-93.563484
18454.1016	-93.541023
18457.0312	-93.520767
18459.9609	-93.494781
18462.8906	-93.433121
18465.8203	-93.363495
18468.7500	-93.326965
18471.6797	-93.337395
18474.6094	-93.331085
18477.5391	-93.273529
18480.4688	-93.211937
18483.3984	-93.192940
18486.3281	-93.191589
18489.2578	-93.168304
18492.1875	-93.163811
18495.1172	-93.156326
18498.0469	-93.072258
18500.9766	-92.964447
18503.9062	-92.937637
18506.8359	-92.947182
18509.7656	-92.928574
18512.6953	-92.913643
18515.6250	-92.902725
18518.5547	-92.886894
18521.4844	-92.835373
18524.4141	-92.780640
18527.3438	-92.778793
18530.2734	-92.764366
18533.2031	-92.724571
18536.1328	-92.687943
18539.0625	-92.635918
18541.9922	-92.607292
18544.9219	-92.593307
18547.8516	-92.560265
18550.7812	-92.535576
18553.7109	-92.501518
18556.6406	-92.461617
18559.5703	-92.422226
18562.5000	-92.384544
18565.4297	-92.384026
18568.3594	-92.352432
18571.2891	-92.288712
18574.2188	-92.235359
18577.1484	-92.198372
18580.0781	-92.159676
18583.0078	-92.087448
18585.9375	-92.026085
18588.8672	-91.974182
18591.7969	-91.881645
18594.7266	-91.806274
18597.6562	-91.703972
18600.5859	-91.549942
18603.5156	-91.397705
18606.4453	-91.199471
18609.3750	-90.960876
18612.3047	-90.697685
18615.2344	-90.415848
18618.1641	-90.137260
18621.0938	-89.840958
18624.0234	-89.525436
18626.9531	-89.209351
18629.8828	-88.890907
18632.8125	-88.575531
18635.7422	-88.297211
18638.6719	-88.075180
18641.6016	-87.906631
18644.5312	-87.789673
18647.4609	-87.721817
18650.3906	-87.682137
18653.3203	-87.661400
18656.2500	-87.671028
18659.1797	-87.691223
18662.1094	-87.695877
18665.0391	-87.712585
18667.9688	-87.757851
18670.8984	-87.784805
18673.8281	-87.792503
18676.7578	-87.812248
18679.6875	-87.836761
18682.6172	-87.865372
18685.5469	-87.885628
18688.4766	-87.881493
18691.4062	-87.885719
18694.3359	-87.922470
18697.2656	-87.963379
18700.1953	-87.987350
18703.1250	-88.026337
18706.0547	-88.079018
18708.9844	-88.124992
18711.9141	-88.194298
18714.8438	-88.277100
18717.7734	-88.345810
18720.7031	-88.423294
18723.6328	-88.512856
18726.5625	-88.578400
18729.4922	-88.626137
18732.4219	-88.669876
18735.3516	-88.690590
18738.2812	-88.687119
18741.2109	-88.672462
18744.1406	-88.646423
18747.0703	-88.616837
18750.0000	-88.604980
18752.9297	-88.605431
18755.8594	-88.596001
18758.7891	-88.558884
18761.7188	-88.521935
18764.6484	-88.493622
18767.5781	-88.445869
18770.5078	-88.395287
18773.4375	-88.354820
18776.3672	-88.321991
18779.2969	-88.274559
18782.2266	-88.231186
18785.1562	-88.193275
18788.0859	-88.163750
18791.0156	-88.151222
18793.9453	-88.126122
18796.8750	-88.096649
18799.8047	-88.078835
18802.7344	-88.040169
18805.6641	-87.995361
18808.5938	-87.975189
18811.5234	-87.947678
18814.4531	-87.895149
18817.3828	-87.837158
18820.3125	-87.794624
18823.2422	-87.763695
18826.1719	-87.725815
18829.1016	-87.690468
18832.0312	-87.662239
18834.9609	-87.623947
18837.8906	-87.581299
18840.8203	-87.552711
18843.7500	-87.520760
18846.6797	-87.475449
18849.6094	-87.440918
18852.5391	-87.409019
18855.4688	-87.372635
18858.3984	-87.348709
18861.3281	-87.337524
18864.2578	-87.317017
18867.1875	-87.279068
18870.1172	-87.237213
18873.0469	-87.204361
18875.9766	-87.194191
18878.9062	-87.184654
18881.8359	-87.155144
18884.7656	-87.126923
18887.6953	-87.108833
18890.6250	-87.089722
18893.5547	-87.062485
18896.4844	-87.045013
18899.4141	-87.038246
18902.3438	-87.027771
18905.2734	-87.018806
18908.2031	-87.012711
18911.1328	-87.002243
18914.0625	-87.003181
18916.9922	-87.027649
18919.9219	-87.034782
18922.8516	-87.019852
18925.7812	-87.030693
18928.7109	-87.065323
18931.6406	-87.099495
18934.5703	-87.108757
18937.5000	-87.110130
18940.4297	-87.137741
18943.3594	-87.169571
18946.2891	-87.195236
18949.2188	-87.225029
18952.1484	-87.270035
18955.0781	-87.319214
18958.0078	-87.362785
18960.9375	-87.395233
18963.8672	-87.388504
18966.7969	-87.391747
18969.7266	-87.462654
18972.6562	-87.532120
18975.5859	-87.537788
18978.5156	-87.529961
18981.4453	-87.543648
18984.3750	-87.554947
18987.3047	-87.556656
18990.2344	-87.540733
18993.1641	-87.531166
18996.0938	-87.544792
18999.0234	-87.552246
19001.9531	-87.538109
19004.8828	-87.506966
19007.8125	-87.499672
19010.7422	-87.525810
19013.6719	-87.531281
19016.6016	-87.494583
19019.5312	-87.428352
19022.4609	-87.386162
19025.3906	-87.389183
19028.3203	-87.394661
19031.2500	-87.373817
19034.1797	-87.316429
19037.1094	-87.264854
19040.0391	-87.243553
19042.9688	-87.223625
19045.8984	-87.205605
19048.8281	-87.180511
19051.7578	-87.151665
19054.6875	-87.120995
19057.6172	-87.083069
19060.5469	-87.070923
19063.4766	-87.063751
19066.4062	-87.029144
19069.3359	-86.982025
19072.2656	-86.950699
19075.1953	-86.932022
19078.1250	-86.905510
19081.0547	-86.870277
19083.9844	-86.820572
19086.9141	-86.777481
19089.8438	-86.749878
19092.7734	-86.739944
19095.7031	-86.735397
19098.6328	-86.704849
19101.5625	-86.648560
19104.4922	-86.595345
19107.4219	-86.566147
19110.3516	-86.556114
19113.2812	-86.550468
19116.2109	-86.536873
19119.1406	-86.494637
19122.0703	-86.443184
19125.0000	-86.413345
19127.9297	-86.399940
19130.8594	-86.397194
19133.7891	-86.385605
19136.7188	-86.346275
19139.6484	-86.297325
19142.5781	-86.276489
19145.5078	-86.261528
19148.4375	-86.239693
19151.3672	-86.237312
19154.2969	-86.222900
19157.2266	-86.184807
19160.1562	-86.140686
19163.0859	-86.106743
19166.0156	-86.097122
19168.9453	-86.097015
19171.8750	-86.079933
19174.8047	-86.051048
19177.7344	-86.023239
19180.6641	-85.982872
19183.5938	-85.944939
19186.5234	-85.935097
19189.4531	-85.937935
19192.3828	-85.932053
19195.3125	-85.909546
19198.2422	-85.861549
19201.1719	-85.792114
19204.1016	-85.754456
19207.0312	-85.767181
19209.9609	-85.775658
19212.8906	-85.759361
19215.8203	-85.741913
19218.7500	-85.723915
19221.6797	-85.692986
19224.6094	-85.641785
19227.5391	-85.590927
19230.4688	-85.569237
19233.3984	-85.573006
19236.3281	-85.589066
19239.2578	-85.595230
19242.1875	-85.577049
19245.1172	-85.552841
19248.0469	-85.531258
19250.9766	-85.494957
19253.9062	-85.456108
19256.8359	-85.445862
19259.7656	-85.458061
19262.6953	-85.476875
19265.6250	-85.480492
19268.5547	-85.465706
19271.4844	-85.449608
19274.4141	-85.418983
19277.3438	-85.375877
19280.2734	-85.336174
19283.2031	-85.309326
19286.1328	-85.301399
19289.0625	-85.313286
19291.9922	-85.328117
19294.9219	-85.314270
19297.8516	-85.278580
19300.7812	-85.238091
19303.7109	-85.199409
19306.6406	-85.137810
19309.5703	-85.072716
19312.5000	-85.037857
19315.4297	-85.018089
19318.3594	-85.008667
19321.2891	-85.019165
19324.2188	-85.036865
19327.1484	-85.031761
19330.0781	-84.991257
19333.0078	-84.923424
19335.9375	-84.844910
19338.8672	-84.768387
19341.7969	-84.709671
19344.7266	-84.667023
19347.6562	-84.622681
19350.5859	-84.601471
19353.5156	-84.601868
19356.4453	-84.593025
19359.3750	-84.585129
19362.3047	-84.571144
19365.2344	-84.528877
19368.1641	-84.473450
19371.0938	-84.410896
19374.0234	-84.334564
19376.9531	-84.276970
19379.8828	-84.239197
19382.8125	-84.183815
19385.7422	-84.126793
19388.6719	-84.092087
19391.6016	-84.076134
19394.5312	-84.066483
19397.4609	-84.049294
19400.3906	-84.042633
19403.3203	-84.039627
19406.2500	-84.007950
19409.1797	-83.946083
19412.1094	-83.863197
19415.0391	-83.770325
19417.9688	-83.673721
19420.8984	-83.585983
19423.8281	-83.509750
19426.7578	-83.438263
19429.6875	-83.388100
19432.6172	-83.358612
19435.5469	-83.331039
19438.4766	-83.318016
19441.4062	-83.312485
19444.3359	-83.279793
19447.2656	-83.229752
19450.1953	-83.169250
19453.1250	-83.082367
19456.0547	-82.980713
19458.9844	-82.877892
19461.9141	-82.784683
19464.8438	-82.701576
19467.7734	-82.628716
19470.7031	-82.576035
19473.6328	-82.532310
19476.5625	-82.494583
19479.4922	-82.473083
19482.4219	-82.452599
19485.3516	-82.414360
19488.2812	-82.367737
19491.2109	-82.307846
19494.1406	-82.208542
19497.0703	-82.072571
19500.0000	-81.916428
19502.9297	-81.739784
19505.8594	-81.518967
19508.7891	-81.256676
19511.7188	-80.965775
19514.6484	-80.640358
19517.5781	-80.295868
19520.5078	-79.950134
19523.4375	-79.608643
19526.3672	-79.278145
19529.2969	-78.959152
19532.2266	-78.657524
19535.1562	-78.383545
19538.0859	-78.134377
19541.0156	-77.909767
19543.9453	-77.728096
19546.8750	-77.600044
19549.8047	-77.518127
19552.7344	-77.477516
19555.6641	-77.474823
19558.5938	-77.497169
19561.5234	-77.534294
19564.4531	-77.594604
19567.3828	-77.679558
19570.3125	-77.778481
19573.2422	-77.911186
19576.1719	-78.090317
19579.1016	-78.305832
19582.0312	-78.550545
19584.9609	-78.824226
19587.8906	-79.123802
19590.8203	-79.455124
19593.7500	-79.824341
19596.6797	-80.223969
19599.6094	-80.645950
19602.5391	-81.086433
19605.4688	-81.549492
19608.3984	-82.040741
19611.3281	-82.541611
19614.2578	-83.033516
19617.1875	-83.500801
19620.1172	-83.929039
19623.0469	-84.330452
19625.9766	-84.707733
19628.9062	-85.041031
19631.8359	-85.339691
19634.7656	-85.617378
19637.6953	-85.839615
19640.6250	-86.011322
19643.5547	-86.169540
19646.4844	-86.320473
19649.4141	-86.470924
19652.3438	-86.628937
19655.2734	-86.798035
19658.2031	-86.953842
19661.1328	-87.090363
19664.0625	-87.212692
19666.9922	-87.294792
19669.9219	-87.357140
19672.8516	-87.424095
19675.7812	-87.486908
19678.7109	-87.538086
19681.6406	-87.549149
19684.5703	-87.528778
19687.5000	-87.522247
19690.4297	-87.522156
19693.3594	-87.529205
19696.2891	-87.560707
19699.2188	-87.562881
19702.1484	-87.535172
19705.0781	-87.506248
19708.0078	-87.475891
19710.9375	-87.476898
19713.8672	-87.475105
19716.7969	-87.459465
19719.7266	-87.473930
19722.6562	-87.503334
19725.5859	-87.553680
19728.5156	-87.632065
19731.4453	-87.714111
19734.3750	-87.812820
19737.3047	-87.945274
19740.2344	-88.108459
19743.1641	-88.292633
19746.0938	-88.482758
19749.0234	-88.672058
19751.9531	-88.854118
19754.8828	-89.021240
19757.8125	-89.176064
19760.7422	-89.328430
19763.6719	-89.463837
19766.6016	-89.580360
19769.5312	-89.713661
19772.4609	-89.871002
19775.3906	-90.041260
19778.3203	-90.201332
19781.2500	-90.374153
19784.1797	-90.587502
19787.1094	-90.797714
19790.0391	-91.004425
19792.9688	-91.260635
19795.8984	-91.577492
19798.8281	-91.900650
19801.7578	-92.169182
19804.6875	-92.342232
19807.6172	-92.372810
19810.5469	-92.271385
19813.4766	-92.105377
19816.4062	-91.904411
19819.3359	-91.646927
19822.2656	-91.347336
19825.1953	-91.042412
19828.1250	-90.750580
19831.0547	-90.475594
19833.9844	-90.242676
19836.9141	-90.064346
19839.8438	-89.941757
19842.7734	-89.847923
19845.7031	-89.735466
19848.6328	-89.657455
19851.5625	-89.661095
19854.4922	-89.710724
19857.4219	-89.803963
19860.3516	-89.930359
19863.2812	-90.070534
19866.2109	-90.228043
19869.1406	-90.382652
19872.0703	-90.477592
19875.0000	-90.475479
19877.9297	-90.428596
19880.8594	-90.383263
19883.7891	-90.313240
19886.7188	-90.241158
19889.6484	-90.238907
19892.5781	-90.291389
19895.5078	-90.343895
19898.4375	-90.386803
19901.3672	-90.383446
19904.2969	-90.334564
19907.2266	-90.273682
19910.1562	-90.184860
19913.0859	-90.066109
19916.0156	-89.966415
19918.9453	-89.871262
19921.8750	-89.722176
19924.8047	-89.571426
19927.7344	-89.456200
19930.6641	-89.327446
19933.5938	-89.233437
19936.5234	-89.234200
19939.4531	-89.307556
19942.3828	-89.403336
19945.3125	-89.477783
19948.2422	-89.533974
19951.1719	-89.565453
19954.1016	-89.552055
19957.0312	-89.523102
19959.9609	-89.487564
19962.8906	-89.458267
19965.8203	-89.507988
19968.7500	-89.610641
19971.6797	-89.666153
19974.6094	-89.665504
19977.5391	-89.640709
19980.4688	-89.593475
19983.3984	-89.541977
19986.3281	-89.530525
19989.2578	-89.575829
19992.1875	-89.630829
19995.1172	-89.644409
19998.0469	-89.613647
20000.9766	-89.552979
20003.9062	-89.497841
20006.8359	-89.469986
20009.7656	-89.452049
20012.6953	-89.423141
20015.6250	-89.379616
20018.5547	-89.327362
20021.4844	-89.285942
20024.4141	-89.284119
20027.3438	-89.348808
20030.2734	-89.434929
20033.2031	-89.470230
20036.1328	-89.454216
20039.0625	-89.415718
20041.9922	-89.378487
20044.9219	-89.396149
20047.8516	-89.465088
20050.7812	-89.540268
20053.7109	-89.588409
20056.6406	-89.573845
20059.5703	-89.548073
20062.5000	-89.546280
20065.4297	-89.549988
20068.3594	-89.583519
20071.2891	-89.612823
20074.2188	-89.603348
20077.1484	-89.580605
20080.0781	-89.570625
20083.0078	-89.618141
20085.9375	-89.677757
20088.8672	-89.699936
20091.7969	-89.705406
20094.7266	-89.692184
20097.6562	-89.689331
20100.5859	-89.712036
20103.5156	-89.737656
20106.4453	-89.738472
20109.3750	-89.706482
20112.3047	-89.694107
20115.2344	-89.715897
20118.1641	-89.761063
20121.0938	-89.803391
20124.0234	-89.795982
20126.9531	-89.778168
20129.8828	-89.788559
20132.8125	-89.818253
20135.7422	-89.855118
20138.6719	-89.881348
20141.6016	-89.875374
20144.5312	-89.860649
20147.4609	-89.891434
20150.3906	-89.954491
20153.3203	-89.996315
20156.2500	-89.981239
20159.1797	-89.965614
20162.1094	-90.011719
20165.0391	-90.062859
20167.9688	-90.068123
20170.8984	-90.050247
20173.8281	-90.020897
20176.7578	-90.018570
20179.6875	-90.074203
20182.6172	-90.114151
20185.5469	-90.122849
20188.4766	-90.147995
20191.4062	-90.173492
20194.3359	-90.200684
20197.2656	-90.236153
20200.1953	-90.255249
20203.1250	-90.268280
20206.0547	-90.308983
20208.9844	-90.361916
20211.9141	-90.387001
20214.8438	-90.370003
20217.7734	-90.361588
20220.7031	-90.405312
20223.6328	-90.451050
20226.5625	-90.431175
20229.4922	-90.397041
20232.4219	-90.409683
20235.3516	-90.431923
20238.2812	-90.435005
20241.2109	-90.468346
20244.1406	-90.477577
20247.0703	-90.446976
20250.0000	-90.453667
20252.9297	-90.464439
20255.8594	-90.438950
20258.7891	-90.433121
20261.7188	-90.466965
20264.6484	-90.472778
20267.5781	-90.444817
20270.5078	-90.448090
20273.4375	-90.492836
20276.3672	-90.540901
20279.2969	-90.532753
20282.2266	-90.511963
20285.1562	-90.554962
20288.0859	-90.573883
20291.0156	-90.543282
20293.9453	-90.531448
20296.8750	-90.534630
20299.8047	-90.542015
20302.7344	-90.568932
20305.6641	-90.611214
20308.5938	-90.637848
20311.5234	-90.651321
20314.4531	-90.630463
20317.3828	-90.606125
20320.3125	-90.628830
20323.2422	-90.655479
20326.1719	-90.675713
20329.1016	-90.697014
20332.0312	-90.731789
20334.9609	-90.741379
20337.8906	-90.682068
20340.8203	-90.650009
20343.7500	-90.682724
20346.6797	-90.681473
20349.6094	-90.649033
20352.5391	-90.671875
20355.4688	-90.726189
20358.3984	-90.743378
20361.3281	-90.744209
20364.2578	-90.750046
20367.1875	-90.767685
20370.1172	-90.806183
20373.0469	-90.813118
20375.9766	-90.803123
20378.9062	-90.834618
20381.8359	-90.860481
20384.7656	-90.861519
20387.6953	-90.883286
20390.6250	-90.900871
20393.5547	-90.878632
20396.4844	-90.884018
20399.4141	-90.949066
20402.3438	-90.995125
20405.2734	-90.977409
20408.2031	-90.976883
20411.1328	-91.007118
20414.0625	-91.008240
20416.9922	-91.009094
20419.9219	-91.027000
20422.8516	-91.033913
20425.7812	-91.024597
20428.7109	-91.025963
20431.6406	-91.048698
20434.5703	-91.080109
20437.5000	-91.102577
20440.4297	-91.115578
20443.3594	-91.129890
20446.2891	-91.125160
20449.2188	-91.112854
20452.1484	-91.111641
20455.0781	-91.134651
20458.0078	-91.183777
20460.9375	-91.209694
20463.8672	-91.202461
20466.7969	-91.196205
20469.7266	-91.221802
20472.6562	-91.259865
20475.5859	-91.260353
20478.5156	-91.276016
20481.4453	-91.307365
20484.3750	-91.292938
20487.3047	-91.302559
20490.2344	-91.326355
20493.1641	-91.308411
20496.0938	-91.337921
20499.0234	-91.400055
20501.9531	-91.406151
20504.8828	-91.422760
20507.8125	-91.442642
20510.7422	-91.428215
20513.6719	-91.443718
20516.6016	-91.476646
20519.5312	-91.491920
20522.4609	-91.505371
20525.3906	-91.548065
20528.3203	-91.557457
20531.2500	-91.540985
20534.1797	-91.564362
20537.1094	-91.616516
20540.0391	-91.635567
20542.9688	-91.637421
20545.8984	-91.636971
20548.8281	-91.630600
20551.7578	-91.673843
20554.6875	-91.747345
20557.6172	-91.754875
20560.5469	-91.720299
20563.4766	-91.748039
20566.4062	-91.798019
20569.3359	-91.805977
20572.2656	-91.815697
20575.1953	-91.814392
20578.1250	-91.822319
20581.0547	-91.878082
20583.9844	-91.916473
20586.9141	-91.956596
20589.8438	-91.980858
20592.7734	-91.952850
20595.7031	-91.975800
20598.6328	-92.010376
20601.5625	-92.024628
20604.4922	-92.062881
20607.4219	-92.086334
20610.3516	-92.113777
20613.2812	-92.140167
20616.2109	-92.125175
20619.1406	-92.106178
20622.0703	-92.137520
20625.0000	-92.163200
20627.9297	-92.164131
20630.8594	-92.187088
20633.7891	-92.208282
20636.7188	-92.230598
20639.6484	-92.249275
20642.5781	-92.249229
20645.5078	-92.268379
20648.4375	-92.314781
20651.3672	-92.360718
20654.2969	-92.391594
20657.2266	-92.421761
20660.1562	-92.432678
20663.0859	-92.414970
20666.0156	-92.407234
20668.9453	-92.404404
20671.8750	-92.431816
20674.8047	-92.486961
20677.7344	-92.519882
20680.6641	-92.532341
20683.5938	-92.552498
20686.5234	-92.612366
20689.4531	-92.641571
20692.3828	-92.619347
20695.3125	-92.613342
20698.2422	-92.619011
20701.1719	-92.636284
20704.1016	-92.658157
20707.0312	-92.681480
20709.9609	-92.712265
20712.8906	-92.726151
20715.8203	-92.728394
20718.7500	-92.751945
20721.6797	-92.792358
20724.6094	-92.830063
20727.5391	-92.842033
20730.4688	-92.885063
20733.3984	-92.972229
20736.3281	-92.991646
20739.2578	-93.002327
20742.1875	-93.046890
20745.1172	-93.078827
20748.0469	-93.094055
20750.9766	-93.091187
20753.9062	-93.122452
20756.8359	-93.200439
20759.7656	-93.244408
20762.6953	-93.247581
20765.6250	-93.263351
20768.5547	-93.280853
20771.4844	-93.288353
20774.4141	-93.300522
20777.3438	-93.327423
20780.2734	-93.381844
20783.2031	-93.446335
20786.1328	-93.462662
20789.0625	-93.455864
20791.9922	-93.492134
20794.9219	-93.551674
20797.8516	-93.582123
20800.7812	-93.585960
20803.7109	-93.603493
20806.6406	-93.610062
20809.5703	-93.638290
20812.5000	-93.707809
20815.4297	-93.741211
20818.3594	-93.736198
20821.2891	-93.743446
20824.2188	-93.786194
20827.1484	-93.807068
20830.0781	-93.815376
20833.0078	-93.870354
20835.9375	-93.909637
20838.8672	-93.922379
20841.7969	-93.925438
20844.7266	-93.946899
20847.6562	-93.974655
20850.5859	-93.981430
20853.5156	-93.992432
20856.4453	-94.027985
20859.3750	-94.038010
20862.3047	-94.044952
20865.2344	-94.067245
20868.1641	-94.060562
20871.0938	-94.082779
20874.0234	-94.152084
20876.9531	-94.179832
20879.8828	-94.150612
20882.8125	-94.135780
20885.7422	-94.165886
20888.6719	-94.177559
20891.6016	-94.170403
20894.5312	-94.193611
20897.4609	-94.235168
20900.3906	-94.269859
20903.3203	-94.302658
20906.2500	-94.367332
20909.1797	-94.374710
20912.1094	-94.333870
20915.0391	-94.360413
20917.9688	-94.400383
20920.8984	-94.445969
20923.8281	-94.467735
20926.7578	-94.428963
20929.6875	-94.436562
20932.6172	-94.481384
20935.5469	-94.492035
20938.4766	-94.513641
20941.4062	-94.551094
20944.3359	-94.578522
20947.2656	-94.583656
20950.1953	-94.556488
20953.1250	-94.556595
20956.0547	-94.606285
20958.9844	-94.624649
20961.9141	-94.629417
20964.8438	-94.711021
20967.7734	-94.746796
20970.7031	-94.718338
20973.6328	-94.723442
20976.5625	-94.709053
20979.4922	-94.678345
20982.4219	-94.682442
20985.3516	-94.728622
20988.2812	-94.795746
20991.2109	-94.804024
20994.1406	-94.739868
20997.0703	-94.705025
21000.0000	-94.740494
21002.9297	-94.776566
21005.8594	-94.792122
21008.7891	-94.825714
21011.7188	-94.844421
21014.6484	-94.841843
21017.5781	-94.851219
21020.5078	-94.899429
21023.4375	-94.942635
21026.3672	-94.928268
21029.2969	-94.931023
21032.2266	-94.948921
21035.1562	-94.945381
21038.0859	-94.952095
21041.0156	-94.963875
21043.9453	-94.959091
21046.8750	-94.968681
21049.8047	-95.015442
21052.7344	-95.091354
21055.6641	-95.106972
21058.5938	-95.029243
21061.5234	-95.005013
21064.4531	-95.023010
21067.3828	-95.005638
21070.3125	-95.024361
21073.2422	-95.072739
21076.1719	-95.119354
21079.1016	-95.156647
21082.0312	-95.149834
21084.9609	-95.132263
21087.8906	-95.116302
21090.8203	-95.101013
21093.7500	-95.099915
21096.6797	-95.071320
21099.6094	-95.076660
21102.5391	-95.139580
21105.4688	-95.176018
21108.3984	-95.180885
21111.3281	-95.186073
21114.2578	-95.198494
21117.1875	-95.186836
21120.1172	-95.170837
21123.0469	-95.181580
21125.9766	-95.179657
21128.9062	-95.198006
21131.8359	-95.254333
21134.7656	-95.286850
21137.6953	-95.309586
21140.6250	-95.332718
21143.5547	-95.310753
21146.4844	-95.297401
21149.4141	-95.320488
21152.3438	-95.329605
21155.2734	-95.377190
21158.2031	-95.391052
21161.1328	-95.326660
21164.0625	-95.339767
21166.9922	-95.435547
21169.9219	-95.480095
21172.8516	-95.474533
21175.7812	-95.435326
21178.7109	-95.428398
21181.6406	-95.495331
21184.5703	-95.516045
21187.5000	-95.487999
21190.4297	-95.489868
21193.3594	-95.518539
21196.2891	-95.530800
21199.2188	-95.530846
21202.1484	-95.556763
21205.0781	-95.584534
21208.0078	-95.600685
21210.9375	-95.604965
21213.8672	-95.610245
21216.7969	-95.643585
21219.7266	-95.666214
21222.6562	-95.673393
21225.5859	-95.708832
21228.5156	-95.719849
21231.4453	-95.681702
21234.3750	-95.642097
21237.3047	-95.640350
21240.2344	-95.692368
21243.1641	-95.727356
21246.0938	-95.737633
21249.0234	-95.748039
21251.9531	-95.756714
21254.8828	-95.776955
21257.8125	-95.777565
21260.7422	-95.790550
21263.6719	-95.812523
21266.6016	-95.831795
21269.5312	-95.816307
21272.4609	-95.784294
21275.3906	-95.802048
21278.3203	-95.801460
21281.2500	-95.800446
21284.1797	-95.873260
21287.1094	-95.874733
21290.0391	-95.825920
21292.9688	-95.860909
21295.8984	-95.907791
21298.8281	-95.919418
21301.7578	-95.935112
21304.6875	-95.949120
21307.6172	-95.938850
21310.5469	-95.921799
21313.4766	-95.937958
21316.4062	-96.008797
21319.3359	-96.058990
21322.2656	-96.071136
21325.1953	-96.064758
21328.1250	-96.036804
21331.0547	-96.056366
21333.9844	-96.109947
21336.9141	-96.149323
21339.8438	-96.150574
21342.7734	-96.123108
21345.7031	-96.154686
21348.6328	-96.197350
21351.5625	-96.184296
21354.4922	-96.188789
21357.4219	-96.239372
21360.3516	-96.300850
21363.2812	-96.305687
21366.2109	-96.243599
21369.1406	-96.213348
21372.0703	-96.250465
21375.0000	-96.287453
21377.9297	-96.305115
21380.8594	-96.303909
21383.7891	-96.354729
21386.7188	-96.392365
21389.6484	-96.322273
21392.5781	-96.299698
21395.5078	-96.369270
21398.4375	-96.367455
21401.3672	-96.289825
21404.2969	-96.305038
21407.2266	-96.386360
21410.1562	-96.425934
21413.0859	-96.430023
21416.0156	-96.403893
21418.9453	-96.376549
21421.8750	-96.373428
21424.8047	-96.448959
21427.7344	-96.534477
21430.6641	-96.483276
21433.5938	-96.410858
21436.5234	-96.425407
21439.4531	-96.487938
21442.3828	-96.541916
21445.3125	-96.534752
21448.2422	-96.558029
21451.1719	-96.645844
21454.1016	-96.665932
21457.0312	-96.637207
21459.9609	-96.623764
21462.8906	-96.595406
21465.8203	-96.579773
21468.7500	-96.584389
21471.6797	-96.629372
21474.6094	-96.671623
21477.5391	-96.696342
21480.4688	-96.674591
21483.3984	-96.601410
21486.3281	-96.568504
21489.2578	-96.629005
21492.1875	-96.695915
21495.1172	-96.722267
21498.0469	-96.737083
21500.9766	-96.710266
21503.9062	-96.703880
21506.8359	-96.751900
21509.7656	-96.800858
21512.6953	-96.820862
21515.6250	-96.839050
21518.5547	-96.852005
21521.4844	-96.866234
21524.4141	-96.897049
21527.3438	-96.885681
21530.2734	-96.880157
21533.2031	-96.916000
21536.1328	-96.946800
21539.0625	-96.974388
21541.9922	-97.008438
21544.9219	-97.011711
21547.8516	-97.021164
21550.7812	-97.042442
21553.7109	-97.033409
21556.6406	-97.078484
21559.5703	-97.089058
21562.5000	-97.048363
21565.4297	-97.046227
21568.3594	-97.039261
21571.2891	-97.023972
21574.2188	-97.031021
21577.1484	-97.049210
21580.0781	-97.097855
21583.0078	-97.162560
21585.9375	-97.143349
21588.8672	-97.115974
21591.7969	-97.161095
21594.7266	-97.193947
21597.6562	-97.197960
21600.5859	-97.173256
21603.5156	-97.158424
21606.4453	-97.224312
21609.3750	-97.281113
21612.3047	-97.280251
21615.2344	-97.313591
21618.1641	-97.364586
21621.0938	-97.374809
21624.0234	-97.357864
21626.9531	-97.337784
21629.8828	-97.338409
21632.8125	-97.326920
21635.7422	-97.307648
